sys_time,imu_time,ax,ay,az,gx,gy,gz
2022-02-14 17:29:28.528545,721.951521,0.0001220703125,-0.9351806640625,-0.366943359375,-0.06103515625,2.74658203125,0.91552734375
2022-02-14 17:29:28.653361,722.070408,0.0001220703125,-0.935302734375,-0.3677978515625,0.06103515625,2.74658203125,0.9765625
2022-02-14 17:29:28.706178,722.087268,0.0,-0.9345703125,-0.3671875,0.18310546875,2.50244140625,0.9765625
2022-02-14 17:29:28.707180,722.119348,0.0,-0.9345703125,-0.3680419921875,0.06103515625,2.74658203125,0.91552734375
2022-02-14 17:29:28.709179,722.133988,0.000244140625,-0.93505859375,-0.3670654296875,0.0,2.74658203125,1.03759765625
2022-02-14 17:29:28.766178,722.147122,0.0003662109375,-0.9346923828125,-0.3675537109375,0.244140625,2.62451171875,0.91552734375
2022-02-14 17:29:28.767180,722.18142,0.0001220703125,-0.935302734375,-0.366943359375,0.0,2.8076171875,1.0986328125
2022-02-14 17:29:28.768180,722.189411,0.000244140625,-0.936767578125,-0.3671875,0.1220703125,2.74658203125,1.0986328125
2022-02-14 17:29:28.826180,722.211265,0.0003662109375,-0.936767578125,-0.3673095703125,-0.06103515625,2.5634765625,1.03759765625
2022-02-14 17:29:28.827180,722.2411,-0.000244140625,-0.93505859375,-0.3675537109375,0.1220703125,2.5634765625,1.0986328125
2022-02-14 17:29:28.829180,722.248609,0.0001220703125,-0.9356689453125,-0.36767578125,0.1220703125,2.685546875,0.9765625
2022-02-14 17:29:28.886180,722.265635,-0.0003662109375,-0.934814453125,-0.3675537109375,0.1220703125,2.74658203125,0.9765625
2022-02-14 17:29:28.887180,722.3041,-0.0006103515625,-0.9356689453125,-0.367431640625,0.1220703125,2.62451171875,1.0986328125
2022-02-14 17:29:28.889182,722.30944,-0.000244140625,-0.93603515625,-0.3677978515625,-0.18310546875,2.74658203125,1.0986328125
2022-02-14 17:29:28.946180,722.325152,-0.0003662109375,-0.9364013671875,-0.3675537109375,0.06103515625,2.8076171875,0.91552734375
2022-02-14 17:29:28.947180,722.361125,-0.0003662109375,-0.9349365234375,-0.3671875,0.1220703125,2.99072265625,1.15966796875
2022-02-14 17:29:28.948180,722.367532,-0.0009765625,-0.935302734375,-0.3670654296875,0.244140625,2.74658203125,0.9765625
2022-02-14 17:29:29.006180,722.384613,-0.000244140625,-0.9351806640625,-0.3675537109375,0.1220703125,2.8076171875,1.03759765625
2022-02-14 17:29:29.007180,722.422328,0.0001220703125,-0.935791015625,-0.3671875,0.244140625,2.685546875,0.9765625
2022-02-14 17:29:29.008180,722.428236,0.000244140625,-0.935302734375,-0.367919921875,0.0,2.685546875,1.03759765625
2022-02-14 17:29:29.067180,722.448985,0.0,-0.9351806640625,-0.3665771484375,0.30517578125,2.74658203125,1.03759765625
2022-02-14 17:29:29.067180,722.483359,-0.00048828125,-0.9345703125,-0.3670654296875,0.18310546875,2.8076171875,0.9765625
2022-02-14 17:29:29.069180,722.486423,-0.000244140625,-0.9349365234375,-0.3677978515625,0.18310546875,2.8076171875,0.9765625
2022-02-14 17:29:29.126179,722.503532,-0.0003662109375,-0.934814453125,-0.366943359375,0.1220703125,2.685546875,0.91552734375
2022-02-14 17:29:29.128180,722.54013,0.0003662109375,-0.9344482421875,-0.367431640625,0.244140625,2.74658203125,1.220703125
2022-02-14 17:29:29.129180,722.545967,-0.0003662109375,-0.935546875,-0.3677978515625,0.1220703125,2.62451171875,0.9765625
2022-02-14 17:29:29.186179,722.563068,0.0,-0.9359130859375,-0.3671875,0.0,2.62451171875,1.03759765625
2022-02-14 17:29:29.187180,722.602356,0.0003662109375,-0.9349365234375,-0.3670654296875,0.1220703125,2.86865234375,1.15966796875
2022-02-14 17:29:29.188180,722.605419,-0.000244140625,-0.935302734375,-0.36767578125,0.0,2.8076171875,1.220703125
2022-02-14 17:29:29.246180,722.62233,-0.0001220703125,-0.9349365234375,-0.3670654296875,0.06103515625,2.5634765625,0.9765625
2022-02-14 17:29:29.247180,722.664082,0.0,-0.935546875,-0.3670654296875,0.244140625,2.8076171875,1.0986328125
2022-02-14 17:29:29.249179,722.673256,-0.000244140625,-0.935791015625,-0.366943359375,0.06103515625,2.86865234375,1.220703125
2022-02-14 17:29:29.306180,722.694801,0.00048828125,-0.935791015625,-0.3675537109375,0.244140625,2.50244140625,0.9765625
2022-02-14 17:29:29.365181,722.721359,-0.00048828125,-0.9351806640625,-0.3680419921875,0.1220703125,2.74658203125,0.91552734375
2022-02-14 17:29:29.366180,722.724425,-0.0006103515625,-0.9356689453125,-0.3668212890625,0.18310546875,2.685546875,1.03759765625
2022-02-14 17:29:29.368181,722.741549,-0.0008544921875,-0.9359130859375,-0.3673095703125,0.1220703125,2.685546875,1.0986328125
2022-02-14 17:29:29.369180,722.783096,-0.00048828125,-0.9356689453125,-0.3671875,0.06103515625,2.74658203125,1.03759765625
2022-02-14 17:29:29.426179,722.800814,0.0003662109375,-0.9356689453125,-0.3673095703125,0.06103515625,2.5634765625,0.9765625
2022-02-14 17:29:29.427181,722.840118,-0.0001220703125,-0.935546875,-0.3673095703125,0.06103515625,2.74658203125,1.0986328125
2022-02-14 17:29:29.429182,722.843181,0.000244140625,-0.9356689453125,-0.3673095703125,0.0,2.86865234375,1.220703125
2022-02-14 17:29:29.486181,722.860071,-0.0001220703125,-0.9344482421875,-0.36767578125,-0.06103515625,2.74658203125,1.03759765625
2022-02-14 17:29:29.487180,722.902084,0.00048828125,-0.9354248046875,-0.3671875,0.18310546875,2.8076171875,1.0986328125
2022-02-14 17:29:29.489180,722.911244,0.000244140625,-0.9356689453125,-0.3668212890625,0.0,2.62451171875,1.03759765625
2022-02-14 17:29:29.546179,722.932802,0.0001220703125,-0.935302734375,-0.3668212890625,0.0,2.5634765625,1.03759765625
2022-02-14 17:29:29.547180,722.962082,0.0001220703125,-0.9345703125,-0.3662109375,0.1220703125,2.5634765625,1.15966796875
2022-02-14 17:29:29.548180,722.970699,0.0,-0.935302734375,-0.3680419921875,0.06103515625,2.74658203125,1.03759765625
2022-02-14 17:29:29.606179,722.992797,-0.0009765625,-0.934814453125,-0.3682861328125,0.0,2.62451171875,0.91552734375
2022-02-14 17:29:29.607181,723.019371,-0.0006103515625,-0.93505859375,-0.367431640625,0.18310546875,2.8076171875,1.28173828125
2022-02-14 17:29:29.608180,723.035071,-0.000244140625,-0.9361572265625,-0.3675537109375,0.1220703125,2.74658203125,1.15966796875
2022-02-14 17:29:29.666179,723.047141,-0.0001220703125,-0.9351806640625,-0.366455078125,0.1220703125,2.74658203125,1.0986328125
2022-02-14 17:29:29.667180,723.079368,-0.0006103515625,-0.9356689453125,-0.3680419921875,0.3662109375,2.74658203125,1.0986328125
2022-02-14 17:29:29.669179,723.094526,0.0003662109375,-0.935302734375,-0.3665771484375,0.1220703125,2.74658203125,1.15966796875
2022-02-14 17:29:29.726179,723.107137,0.0001220703125,-0.936279296875,-0.368408203125,0.1220703125,2.74658203125,1.03759765625
2022-02-14 17:29:29.727180,723.140364,0.000244140625,-0.9349365234375,-0.3675537109375,0.0,2.9296875,1.0986328125
2022-02-14 17:29:29.786181,723.148983,0.0001220703125,-0.934814453125,-0.3677978515625,0.0,2.86865234375,1.15966796875
2022-02-14 17:29:29.787180,723.165804,-0.0003662109375,-0.934326171875,-0.3670654296875,0.1220703125,2.50244140625,0.9765625
2022-02-14 17:29:29.788182,723.1998,0.000244140625,-0.9354248046875,-0.3685302734375,0.0,2.62451171875,1.03759765625
2022-02-14 17:29:29.790181,723.208262,0.0001220703125,-0.9364013671875,-0.367431640625,0.1220703125,2.62451171875,0.9765625
2022-02-14 17:29:29.846181,723.229799,0.0003662109375,-0.9364013671875,-0.3675537109375,0.0,2.685546875,0.732421875
2022-02-14 17:29:29.847181,723.264082,-0.000244140625,-0.934326171875,-0.3673095703125,0.0,2.74658203125,1.15966796875
2022-02-14 17:29:29.848180,723.267686,-0.00048828125,-0.935302734375,-0.3680419921875,0.18310546875,2.74658203125,1.15966796875
2022-02-14 17:29:29.906179,723.285137,0.0003662109375,-0.9354248046875,-0.3680419921875,-0.1220703125,2.685546875,1.03759765625
2022-02-14 17:29:29.907179,723.319488,-0.0001220703125,-0.9351806640625,-0.3677978515625,0.1220703125,2.8076171875,1.0986328125
2022-02-14 17:29:29.909179,723.327417,-0.0008544921875,-0.9354248046875,-0.3685302734375,0.18310546875,2.86865234375,1.0986328125
2022-02-14 17:29:29.966180,723.34953,-0.000244140625,-0.9354248046875,-0.3668212890625,0.06103515625,2.50244140625,0.91552734375
2022-02-14 17:29:29.968179,723.383353,0.0001220703125,-0.9346923828125,-0.3670654296875,0.18310546875,2.62451171875,1.15966796875
2022-02-14 17:29:29.968179,723.388125,0.000244140625,-0.9354248046875,-0.3671875,0.06103515625,2.9296875,1.0986328125
2022-02-14 17:29:30.026180,723.403871,0.0,-0.934814453125,-0.366943359375,-0.1220703125,2.86865234375,1.0986328125
2022-02-14 17:29:30.027179,723.44012,0.0001220703125,-0.9351806640625,-0.3677978515625,0.0,2.74658203125,1.220703125
2022-02-14 17:29:30.028180,723.446538,-0.0001220703125,-0.9354248046875,-0.3668212890625,-0.18310546875,2.8076171875,1.220703125
2022-02-14 17:29:30.086179,723.46312,0.0001220703125,-0.935546875,-0.3671875,0.0,2.5634765625,0.9765625
2022-02-14 17:29:30.088179,723.502336,-0.0001220703125,-0.9349365234375,-0.3670654296875,0.06103515625,2.86865234375,1.28173828125
2022-02-14 17:29:30.089180,723.505938,-0.000244140625,-0.9365234375,-0.3682861328125,0.06103515625,2.8076171875,1.3427734375
2022-02-14 17:29:30.146179,723.522861,-0.0009765625,-0.9351806640625,-0.36767578125,0.244140625,2.74658203125,1.220703125
2022-02-14 17:29:30.147180,723.563365,0.000244140625,-0.9361572265625,-0.36767578125,0.1220703125,2.74658203125,1.0986328125
2022-02-14 17:29:30.148179,723.577976,0.0003662109375,-0.93603515625,-0.3675537109375,0.1220703125,2.86865234375,1.0986328125
2022-02-14 17:29:30.206180,723.590801,-0.000244140625,-0.9354248046875,-0.36767578125,0.0,2.685546875,1.0986328125
2022-02-14 17:29:30.207182,723.62048,-0.0013427734375,-0.93505859375,-0.3675537109375,0.1220703125,2.685546875,0.8544921875
2022-02-14 17:29:30.208181,723.625662,0.000244140625,-0.935302734375,-0.367431640625,-0.06103515625,2.86865234375,1.15966796875
2022-02-14 17:29:30.276179,723.685252,-0.0001220703125,-0.9349365234375,-0.3675537109375,-0.18310546875,2.8076171875,1.220703125
2022-02-14 17:29:30.327179,723.706246,0.0001220703125,-0.9349365234375,-0.367431640625,0.0,2.62451171875,0.91552734375
2022-02-14 17:29:30.327179,723.739438,-0.0006103515625,-0.9351806640625,-0.36865234375,0.1220703125,2.86865234375,1.0986328125
2022-02-14 17:29:30.328180,723.74468,0.0001220703125,-0.9351806640625,-0.36767578125,0.1220703125,2.8076171875,1.15966796875
2022-02-14 17:29:30.386180,723.7604,0.00048828125,-0.9342041015625,-0.3668212890625,0.0,2.685546875,1.03759765625
2022-02-14 17:29:30.387180,723.799436,0.0,-0.935302734375,-0.3681640625,0.1220703125,2.62451171875,1.0986328125
2022-02-14 17:29:30.447179,723.804141,-0.0006103515625,-0.9356689453125,-0.3680419921875,0.18310546875,2.74658203125,1.03759765625
2022-02-14 17:29:30.447179,723.819855,-0.0003662109375,-0.9349365234375,-0.3682861328125,0.244140625,2.50244140625,1.0986328125
2022-02-14 17:29:30.454180,723.858285,-0.0006103515625,-0.9349365234375,-0.36767578125,0.244140625,2.8076171875,1.15966796875
2022-02-14 17:29:30.507180,723.870969,-0.000732421875,-0.935302734375,-0.36767578125,0.18310546875,2.62451171875,0.9765625
2022-02-14 17:29:30.566180,723.920122,-0.0001220703125,-0.9354248046875,-0.367431640625,0.1220703125,2.8076171875,1.0986328125
2022-02-14 17:29:30.568179,723.935254,-0.0003662109375,-0.935302734375,-0.367431640625,0.1220703125,2.8076171875,0.9765625
2022-02-14 17:29:30.568179,723.947609,0.000244140625,-0.9351806640625,-0.36767578125,0.06103515625,2.5634765625,0.9765625
2022-02-14 17:29:30.581180,723.981362,-0.00048828125,-0.93603515625,-0.3668212890625,0.1220703125,2.9296875,0.9765625
2022-02-14 17:29:30.626181,723.998089,0.0,-0.935791015625,-0.3685302734375,0.18310546875,2.62451171875,1.0986328125
2022-02-14 17:29:30.627181,724.042588,-0.0003662109375,-0.9346923828125,-0.3670654296875,0.0,2.74658203125,1.0986328125
2022-02-14 17:29:30.628180,724.049042,0.0003662109375,-0.9354248046875,-0.3673095703125,0.1220703125,2.86865234375,1.0986328125
2022-02-14 17:29:30.686180,724.066079,-0.00048828125,-0.9351806640625,-0.3681640625,0.0,2.5634765625,0.91552734375
2022-02-14 17:29:30.687180,724.100116,0.00048828125,-0.9351806640625,-0.366943359375,0.1220703125,2.8076171875,1.28173828125
2022-02-14 17:29:30.688180,724.108731,0.0003662109375,-0.935302734375,-0.3675537109375,0.0,2.86865234375,1.220703125
2022-02-14 17:29:30.746180,724.130804,0.000244140625,-0.935302734375,-0.3680419921875,0.30517578125,2.5634765625,1.0986328125
2022-02-14 17:29:30.747180,724.160113,-0.0001220703125,-0.9342041015625,-0.36669921875,0.1220703125,2.74658203125,1.15966796875
2022-02-14 17:29:30.748181,724.168159,-0.0008544921875,-0.9351806640625,-0.3682861328125,0.06103515625,2.62451171875,1.0986328125
2022-02-14 17:29:30.806180,724.184962,0.0001220703125,-0.9354248046875,-0.3670654296875,0.0,2.62451171875,0.9765625
2022-02-14 17:29:30.807180,724.219753,-0.0008544921875,-0.935302734375,-0.3671875,0.06103515625,2.8076171875,1.220703125
2022-02-14 17:29:30.809179,724.227718,-0.0003662109375,-0.93505859375,-0.3677978515625,0.0,2.74658203125,1.03759765625
2022-02-14 17:29:30.926179,724.249796,-0.0008544921875,-0.93505859375,-0.366943359375,0.18310546875,2.8076171875,0.9765625
2022-02-14 17:29:30.927180,724.283361,-0.000244140625,-0.9345703125,-0.36767578125,-0.06103515625,2.86865234375,1.28173828125
2022-02-14 17:29:30.930180,724.288142,-0.0001220703125,-0.9354248046875,-0.3680419921875,0.0,2.86865234375,1.28173828125
2022-02-14 17:29:30.986178,724.303859,0.000244140625,-0.935546875,-0.366943359375,0.1220703125,2.685546875,1.03759765625
2022-02-14 17:29:30.987180,724.403342,-0.0001220703125,-0.93505859375,-0.367919921875,-0.06103515625,2.9296875,1.0986328125
2022-02-14 17:29:30.988180,724.419065,0.0,-0.9349365234375,-0.3671875,0.06103515625,2.8076171875,1.03759765625
2022-02-14 17:29:31.046179,724.431675,-0.000244140625,-0.9354248046875,-0.3675537109375,0.0,2.74658203125,1.0986328125
2022-02-14 17:29:31.047180,724.459498,-0.0001220703125,-0.9371337890625,-0.3670654296875,0.0,2.9296875,1.220703125
2022-02-14 17:29:31.049180,724.465247,-0.0003662109375,-0.9354248046875,-0.366943359375,0.18310546875,2.74658203125,0.9765625
2022-02-14 17:29:31.106211,724.482344,0.0003662109375,-0.935546875,-0.3656005859375,0.06103515625,2.74658203125,0.91552734375
2022-02-14 17:29:31.107182,724.522084,-0.000732421875,-0.93505859375,-0.3673095703125,0.0,2.8076171875,1.03759765625
2022-02-14 17:29:31.108180,724.525145,-0.0006103515625,-0.9354248046875,-0.36669921875,0.18310546875,2.86865234375,1.28173828125
2022-02-14 17:29:31.166180,724.542064,0.0001220703125,-0.9366455078125,-0.36669921875,0.18310546875,2.9296875,1.03759765625
2022-02-14 17:29:31.167180,724.583343,0.0003662109375,-0.935302734375,-0.367919921875,0.1220703125,2.9296875,1.0986328125
2022-02-14 17:29:31.169180,724.597959,0.0,-0.9356689453125,-0.3675537109375,0.06103515625,2.74658203125,1.03759765625
2022-02-14 17:29:31.226180,724.611123,-0.0003662109375,-0.934814453125,-0.366943359375,0.1220703125,2.9296875,0.91552734375
2022-02-14 17:29:31.227180,724.641104,-0.00048828125,-0.935791015625,-0.3677978515625,0.0,2.86865234375,1.15966796875
2022-02-14 17:29:31.228180,724.656807,-0.00048828125,-0.9351806640625,-0.3670654296875,0.0,2.8076171875,1.03759765625
2022-02-14 17:29:31.292178,724.669384,-0.000732421875,-0.935302734375,-0.367431640625,0.06103515625,2.5634765625,1.03759765625
2022-02-14 17:29:31.292178,724.711965,-0.0001220703125,-0.9345703125,-0.366455078125,0.0,2.8076171875,1.03759765625
2022-02-14 17:29:31.346180,724.72901,0.000244140625,-0.9344482421875,-0.3677978515625,-0.06103515625,2.685546875,1.03759765625
2022-02-14 17:29:31.347179,724.759379,-0.000732421875,-0.9354248046875,-0.3673095703125,-0.1220703125,2.8076171875,1.15966796875
2022-02-14 17:29:31.349180,724.764124,-0.0003662109375,-0.9345703125,-0.3673095703125,0.1220703125,2.685546875,1.03759765625
2022-02-14 17:29:31.406180,724.779512,-0.0003662109375,-0.93505859375,-0.36669921875,0.06103515625,2.74658203125,0.9765625
2022-02-14 17:29:31.407179,724.821097,0.0003662109375,-0.9345703125,-0.3675537109375,0.1220703125,2.685546875,1.0986328125
2022-02-14 17:29:31.409179,724.830788,-0.0001220703125,-0.935546875,-0.3682861328125,-0.06103515625,2.685546875,0.9765625
2022-02-14 17:29:31.466179,724.848862,-0.0001220703125,-0.934814453125,-0.367431640625,0.0,2.685546875,0.79345703125
2022-02-14 17:29:31.467179,724.883344,-0.00048828125,-0.9356689453125,-0.3682861328125,-0.06103515625,2.8076171875,1.03759765625
2022-02-14 17:29:31.469179,724.890319,-0.000244140625,-0.93505859375,-0.36669921875,0.0,2.8076171875,0.9765625
2022-02-14 17:29:31.527201,724.907342,-0.0001220703125,-0.936767578125,-0.3675537109375,-0.06103515625,2.685546875,0.91552734375
2022-02-14 17:29:31.527201,724.94042,0.0001220703125,-0.9351806640625,-0.3682861328125,0.244140625,2.685546875,1.03759765625
2022-02-14 17:29:31.585179,724.949497,0.0003662109375,-0.9354248046875,-0.3671875,0.0,2.685546875,0.9765625
2022-02-14 17:29:31.586182,724.967575,-0.0001220703125,-0.9351806640625,-0.367431640625,0.18310546875,2.50244140625,0.8544921875
2022-02-14 17:29:31.588180,725.002338,-0.000732421875,-0.935302734375,-0.3677978515625,0.1220703125,2.9296875,1.0986328125
2022-02-14 17:29:31.589180,725.008788,0.0,-0.9345703125,-0.3663330078125,0.06103515625,2.8076171875,0.9765625
2022-02-14 17:29:31.646179,725.025811,-0.0006103515625,-0.935302734375,-0.367431640625,-0.06103515625,2.685546875,0.79345703125
2022-02-14 17:29:31.647179,725.059743,-0.000244140625,-0.93603515625,-0.3675537109375,0.0,2.9296875,1.15966796875
2022-02-14 17:29:31.648180,725.068234,0.0001220703125,-0.9361572265625,-0.3673095703125,0.06103515625,2.685546875,0.9765625
2022-02-14 17:29:31.706213,725.089787,-0.0003662109375,-0.9349365234375,-0.36767578125,0.1220703125,2.5634765625,0.91552734375
2022-02-14 17:29:31.707180,725.123348,0.0003662109375,-0.9349365234375,-0.3670654296875,0.06103515625,2.685546875,1.0986328125
2022-02-14 17:29:31.709179,725.129216,-0.0003662109375,-0.9351806640625,-0.3673095703125,0.0,2.86865234375,1.03759765625
2022-02-14 17:29:31.766180,725.149954,0.0,-0.934814453125,-0.3671875,0.0,2.62451171875,1.03759765625
2022-02-14 17:29:31.767181,725.180124,0.0,-0.9351806640625,-0.3677978515625,0.0,2.9296875,1.0986328125
2022-02-14 17:29:31.769182,725.1876,0.0,-0.935546875,-0.3670654296875,0.0,2.86865234375,1.15966796875
2022-02-14 17:29:31.826180,725.204623,-0.0003662109375,-0.9356689453125,-0.3673095703125,0.1220703125,2.74658203125,1.03759765625
2022-02-14 17:29:31.827180,725.241317,-0.0001220703125,-0.9351806640625,-0.3671875,-0.06103515625,2.99072265625,1.15966796875
2022-02-14 17:29:31.828180,725.247217,0.000244140625,-0.935302734375,-0.3668212890625,-0.244140625,2.99072265625,1.0986328125
2022-02-14 17:29:31.886179,725.26375,0.0003662109375,-0.935546875,-0.3663330078125,0.18310546875,2.44140625,0.91552734375
2022-02-14 17:29:31.887180,725.304089,0.0,-0.93505859375,-0.3677978515625,-0.06103515625,2.86865234375,1.0986328125
2022-02-14 17:29:31.889179,725.319793,0.00048828125,-0.935302734375,-0.367431640625,0.1220703125,2.74658203125,1.0986328125
2022-02-14 17:29:31.946181,725.33186,0.0003662109375,-0.93505859375,-0.3665771484375,-0.18310546875,2.685546875,0.9765625
2022-02-14 17:29:31.947180,725.359381,0.000244140625,-0.9361572265625,-0.3673095703125,0.1220703125,2.74658203125,1.15966796875
2022-02-14 17:29:31.949179,725.365782,0.00048828125,-0.9359130859375,-0.36572265625,0.1220703125,2.62451171875,1.03759765625
2022-02-14 17:29:32.015178,725.419376,0.0001220703125,-0.934814453125,-0.3671875,0.06103515625,2.62451171875,1.03759765625
2022-02-14 17:29:32.015178,725.425229,0.0001220703125,-0.935546875,-0.3670654296875,0.1220703125,2.8076171875,1.220703125
2022-02-14 17:29:32.066211,725.442341,0.0003662109375,-0.935791015625,-0.3671875,-0.1220703125,2.50244140625,1.03759765625
2022-02-14 17:29:32.068183,725.482091,-0.0001220703125,-0.9349365234375,-0.3670654296875,-0.06103515625,2.8076171875,1.220703125
2022-02-14 17:29:32.069211,725.497797,0.0,-0.93603515625,-0.3675537109375,0.0,2.685546875,1.220703125
2022-02-14 17:29:32.126211,725.509963,-0.00048828125,-0.9351806640625,-0.3665771484375,-0.1220703125,2.62451171875,0.8544921875
2022-02-14 17:29:32.127180,725.542293,-0.000732421875,-0.9346923828125,-0.3668212890625,-0.18310546875,2.685546875,1.15966796875
2022-02-14 17:29:32.129180,725.556966,-0.000732421875,-0.9364013671875,-0.3675537109375,-0.06103515625,2.5634765625,1.15966796875
2022-02-14 17:29:32.186179,725.569801,-0.0006103515625,-0.9351806640625,-0.3673095703125,0.06103515625,2.5634765625,0.8544921875
2022-02-14 17:29:32.187180,725.600102,-0.000244140625,-0.9349365234375,-0.3673095703125,0.06103515625,2.74658203125,1.03759765625
2022-02-14 17:29:32.189179,725.603739,-0.0006103515625,-0.9346923828125,-0.3682861328125,0.244140625,2.685546875,1.03759765625
2022-02-14 17:29:32.246200,725.620591,-0.00048828125,-0.9359130859375,-0.3680419921875,0.06103515625,2.38037109375,0.91552734375
2022-02-14 17:29:32.247180,725.662091,-0.000244140625,-0.9344482421875,-0.36767578125,0.1220703125,2.685546875,1.03759765625
2022-02-14 17:29:32.248181,725.671757,0.000244140625,-0.9354248046875,-0.366455078125,0.06103515625,2.74658203125,1.03759765625
2022-02-14 17:29:32.326179,725.688608,0.0,-0.9351806640625,-0.36767578125,-0.1220703125,2.50244140625,0.8544921875
2022-02-14 17:29:32.326179,725.725091,0.0,-0.9349365234375,-0.366943359375,-0.06103515625,2.685546875,1.0986328125
2022-02-14 17:29:32.427181,725.780466,-0.000244140625,-0.935546875,-0.365478515625,0.06103515625,2.86865234375,1.0986328125
2022-02-14 17:29:32.432180,725.795506,0.0001220703125,-0.9349365234375,-0.3673095703125,-0.1220703125,2.86865234375,1.0986328125
2022-02-14 17:29:32.486180,725.807806,-0.000244140625,-0.9364013671875,-0.36767578125,0.0,2.8076171875,1.15966796875
2022-02-14 17:29:32.488180,725.904093,-0.0009765625,-0.935302734375,-0.366943359375,0.06103515625,2.74658203125,1.03759765625
2022-02-14 17:29:32.488180,725.909956,0.0003662109375,-0.934814453125,-0.3668212890625,0.06103515625,2.9296875,1.0986328125
2022-02-14 17:29:32.546179,725.926092,-0.000244140625,-0.935302734375,-0.3680419921875,0.06103515625,2.62451171875,0.9765625
2022-02-14 17:29:32.547180,725.961356,-0.00048828125,-0.9349365234375,-0.36572265625,-0.06103515625,2.74658203125,0.9765625
2022-02-14 17:29:32.549179,725.968839,0.0001220703125,-0.9349365234375,-0.36669921875,-0.06103515625,2.685546875,1.03759765625
2022-02-14 17:29:32.618180,725.98584,0.000244140625,-0.9351806640625,-0.3670654296875,-0.1220703125,2.685546875,0.9765625
2022-02-14 17:29:32.618180,726.029413,0.0001220703125,-0.935546875,-0.36865234375,0.06103515625,2.62451171875,1.15966796875
2022-02-14 17:29:32.666180,726.045382,0.0003662109375,-0.9346923828125,-0.3670654296875,0.0,2.62451171875,0.9765625
2022-02-14 17:29:32.667180,726.07942,-0.00048828125,-0.935791015625,-0.3675537109375,0.244140625,2.8076171875,1.15966796875
2022-02-14 17:29:32.669179,726.087961,0.000244140625,-0.934814453125,-0.367431640625,0.1220703125,2.74658203125,0.91552734375
2022-02-14 17:29:32.726211,726.104467,0.000244140625,-0.935302734375,-0.3673095703125,0.1220703125,2.685546875,0.91552734375
2022-02-14 17:29:32.727180,726.142293,-0.0001220703125,-0.935546875,-0.367431640625,0.1220703125,2.9296875,1.03759765625
2022-02-14 17:29:32.728180,726.148212,0.0,-0.934814453125,-0.3670654296875,0.244140625,2.74658203125,1.0986328125
2022-02-14 17:29:32.846182,726.168957,-0.000244140625,-0.9351806640625,-0.3680419921875,0.18310546875,2.685546875,0.91552734375
2022-02-14 17:29:32.848180,726.202338,-0.0001220703125,-0.9346923828125,-0.3671875,-0.1220703125,2.86865234375,1.15966796875
2022-02-14 17:29:32.849180,726.207642,0.000244140625,-0.9371337890625,-0.3681640625,0.06103515625,2.9296875,1.0986328125
2022-02-14 17:29:32.906181,726.223376,-0.0009765625,-0.9354248046875,-0.367431640625,-0.06103515625,2.5634765625,1.03759765625
2022-02-14 17:29:32.907181,726.319719,-0.0006103515625,-0.935302734375,-0.3668212890625,0.0,2.685546875,0.91552734375
2022-02-14 17:29:32.908181,726.325495,-0.0003662109375,-0.93603515625,-0.366943359375,0.06103515625,2.8076171875,1.03759765625
2022-02-14 17:29:32.966181,726.342622,-0.001220703125,-0.93505859375,-0.3673095703125,0.06103515625,2.74658203125,1.15966796875
2022-02-14 17:29:32.967181,726.382086,-0.000244140625,-0.93408203125,-0.36669921875,0.18310546875,2.8076171875,1.220703125
2022-02-14 17:29:32.968211,726.38515,-0.000732421875,-0.93505859375,-0.3658447265625,-0.06103515625,3.0517578125,1.0986328125
2022-02-14 17:29:33.026179,726.402024,0.0,-0.93505859375,-0.3675537109375,-0.30517578125,2.62451171875,1.220703125
2022-02-14 17:29:33.027181,726.443334,-0.000244140625,-0.93505859375,-0.3681640625,0.0,2.86865234375,1.220703125
2022-02-14 17:29:33.029180,726.457959,-0.0006103515625,-0.935546875,-0.367431640625,0.0,2.685546875,0.9765625
2022-02-14 17:29:33.086209,726.471096,0.0,-0.9356689453125,-0.3671875,-0.06103515625,2.74658203125,0.91552734375
2022-02-14 17:29:33.088180,726.501095,0.0,-0.9354248046875,-0.36669921875,0.244140625,2.86865234375,1.220703125
2022-02-14 17:29:33.088180,726.516759,0.000244140625,-0.9349365234375,-0.3662109375,0.1220703125,2.62451171875,1.03759765625
2022-02-14 17:29:33.146182,726.529388,0.000244140625,-0.9356689453125,-0.366455078125,0.0,2.685546875,0.9765625
2022-02-14 17:29:33.147181,726.563357,-0.0006103515625,-0.934814453125,-0.366455078125,-0.1220703125,2.74658203125,1.03759765625
2022-02-14 17:29:33.148180,726.571937,-0.00048828125,-0.9351806640625,-0.36572265625,-0.06103515625,2.5634765625,0.91552734375
2022-02-14 17:29:33.206211,726.59376,-0.0003662109375,-0.93505859375,-0.3677978515625,0.0,2.62451171875,0.9765625
2022-02-14 17:29:33.207181,726.619329,-0.0003662109375,-0.9345703125,-0.3665771484375,0.0,2.74658203125,1.0986328125
2022-02-14 17:29:33.209225,726.624126,-0.0006103515625,-0.93505859375,-0.3671875,0.06103515625,2.74658203125,1.03759765625
2022-02-14 17:29:33.266179,726.639826,-0.0006103515625,-0.9351806640625,-0.3670654296875,0.0,2.62451171875,0.9765625
2022-02-14 17:29:33.267180,726.680474,0.0001220703125,-0.935791015625,-0.367431640625,-0.06103515625,2.74658203125,1.220703125
2022-02-14 17:29:33.268181,726.695492,-0.0010986328125,-0.9345703125,-0.3665771484375,-0.06103515625,2.74658203125,1.0986328125
2022-02-14 17:29:33.326179,726.708098,-0.0001220703125,-0.9364013671875,-0.366455078125,-0.1220703125,2.5634765625,1.03759765625
2022-02-14 17:29:33.327180,726.740329,0.0,-0.9349365234375,-0.36669921875,0.0,2.86865234375,1.0986328125
2022-02-14 17:29:33.328180,726.754955,0.000244140625,-0.93505859375,-0.36669921875,0.0,2.86865234375,1.03759765625
2022-02-14 17:29:33.386190,726.768098,0.0003662109375,-0.9356689453125,-0.36669921875,0.0,2.685546875,0.79345703125
2022-02-14 17:29:33.387184,726.799303,-0.0010986328125,-0.9351806640625,-0.366943359375,0.0,2.74658203125,1.15966796875
2022-02-14 17:29:33.388181,726.813948,0.000244140625,-0.934814453125,-0.367431640625,0.0,2.74658203125,0.8544921875
2022-02-14 17:29:33.446220,726.82711,-0.0001220703125,-0.93505859375,-0.3665771484375,0.244140625,2.74658203125,1.03759765625
2022-02-14 17:29:33.447180,726.862062,-0.00048828125,-0.935302734375,-0.367431640625,0.1220703125,2.5634765625,0.91552734375
2022-02-14 17:29:33.448182,726.869033,0.0,-0.935302734375,-0.36767578125,0.0,2.50244140625,0.8544921875
2022-02-14 17:29:33.506182,726.886067,0.0003662109375,-0.9349365234375,-0.3682861328125,0.0,2.685546875,0.9765625
2022-02-14 17:29:33.507181,726.919719,-0.0001220703125,-0.9356689453125,-0.36767578125,0.1220703125,2.86865234375,1.15966796875
2022-02-14 17:29:33.508182,726.928763,-0.0001220703125,-0.93603515625,-0.36669921875,0.0,2.74658203125,1.0986328125
2022-02-14 17:29:33.566181,726.945566,0.000244140625,-0.9351806640625,-0.3680419921875,0.06103515625,2.62451171875,0.8544921875
2022-02-14 17:29:33.567180,726.979293,0.0,-0.9356689453125,-0.3665771484375,0.06103515625,2.8076171875,1.220703125
2022-02-14 17:29:33.568180,726.987946,0.0003662109375,-0.935546875,-0.367431640625,0.1220703125,2.86865234375,1.0986328125
2022-02-14 17:29:33.686182,727.005004,-0.000244140625,-0.935302734375,-0.3662109375,0.0,2.62451171875,1.03759765625
2022-02-14 17:29:33.687180,727.040349,0.0,-0.93505859375,-0.3675537109375,0.0,2.8076171875,1.0986328125
2022-02-14 17:29:33.688211,727.047289,0.0,-0.935302734375,-0.3673095703125,-0.06103515625,2.8076171875,0.9765625
2022-02-14 17:29:33.746179,727.064339,-0.0001220703125,-0.9366455078125,-0.3675537109375,-0.06103515625,2.5634765625,0.9765625
2022-02-14 17:29:33.747180,727.161361,0.0001220703125,-0.9364013671875,-0.3673095703125,0.18310546875,2.86865234375,1.03759765625
2022-02-14 17:29:33.749179,727.167222,0.0001220703125,-0.9351806640625,-0.3658447265625,0.244140625,2.74658203125,1.0986328125
2022-02-14 17:29:33.806179,727.183205,0.000244140625,-0.934814453125,-0.366455078125,0.1220703125,2.38037109375,1.0986328125
2022-02-14 17:29:33.807181,727.224044,0.0001220703125,-0.9349365234375,-0.3673095703125,0.18310546875,2.8076171875,1.15966796875
2022-02-14 17:29:33.809179,727.239241,0.0001220703125,-0.93603515625,-0.3680419921875,0.06103515625,2.62451171875,1.15966796875
2022-02-14 17:29:33.866181,727.251845,-0.0003662109375,-0.9351806640625,-0.367431640625,0.1220703125,2.50244140625,0.9765625
2022-02-14 17:29:33.868224,727.282076,0.0001220703125,-0.934814453125,-0.367431640625,0.18310546875,2.8076171875,1.15966796875
2022-02-14 17:29:33.869211,727.28514,0.000244140625,-0.93505859375,-0.3673095703125,0.0,2.8076171875,0.9765625
2022-02-14 17:29:33.926181,727.302013,0.0003662109375,-0.9356689453125,-0.3670654296875,0.06103515625,2.685546875,1.03759765625
2022-02-14 17:29:33.927182,727.343354,-0.0001220703125,-0.9346923828125,-0.367919921875,0.0,2.99072265625,1.15966796875
2022-02-14 17:29:33.928182,727.357949,-0.0006103515625,-0.9354248046875,-0.36767578125,-0.1220703125,2.8076171875,1.15966796875
2022-02-14 17:29:33.986181,727.370827,-0.0001220703125,-0.934814453125,-0.3668212890625,0.0,2.62451171875,1.03759765625
2022-02-14 17:29:33.987181,727.399388,-0.0006103515625,-0.9346923828125,-0.3675537109375,0.1220703125,2.8076171875,1.15966796875
2022-02-14 17:29:33.988182,727.405228,0.0,-0.93505859375,-0.3677978515625,0.1220703125,2.74658203125,0.9765625
2022-02-14 17:29:34.046180,727.425938,0.0001220703125,-0.9351806640625,-0.3673095703125,0.244140625,2.62451171875,0.91552734375
2022-02-14 17:29:34.047180,727.461081,0.000244140625,-0.9349365234375,-0.36767578125,0.244140625,2.74658203125,0.91552734375
2022-02-14 17:29:34.049180,727.47677,0.0001220703125,-0.934814453125,-0.36669921875,-0.06103515625,2.74658203125,0.9765625
2022-02-14 17:29:34.113179,727.488845,-0.0003662109375,-0.936279296875,-0.366455078125,0.0,2.50244140625,0.79345703125
2022-02-14 17:29:34.113179,727.531568,0.0001220703125,-0.935791015625,-0.366455078125,-0.06103515625,2.8076171875,1.0986328125
2022-02-14 17:29:34.167179,727.548607,0.0003662109375,-0.9351806640625,-0.3653564453125,-0.06103515625,2.86865234375,0.9765625
2022-02-14 17:29:34.168181,727.579499,-0.0006103515625,-0.935302734375,-0.3673095703125,-0.1220703125,2.86865234375,1.03759765625
2022-02-14 17:29:34.169181,727.582568,-0.00048828125,-0.935302734375,-0.3673095703125,-0.06103515625,2.74658203125,0.91552734375
2022-02-14 17:29:34.226179,727.599567,-0.0001220703125,-0.935302734375,-0.3663330078125,0.06103515625,2.5634765625,0.91552734375
2022-02-14 17:29:34.227180,727.640469,-0.03125,-0.935302734375,-0.36669921875,0.244140625,2.8076171875,1.0986328125
2022-02-14 17:29:34.228180,727.655479,0.0003662109375,-0.93603515625,-0.3668212890625,0.18310546875,2.8076171875,1.03759765625
2022-02-14 17:29:34.288179,727.667457,0.0001220703125,-0.935302734375,-0.3671875,0.244140625,2.62451171875,0.91552734375
2022-02-14 17:29:34.289179,727.715012,-0.0003662109375,-0.93505859375,-0.3665771484375,0.0,2.685546875,1.03759765625
2022-02-14 17:29:34.346179,727.727105,0.000244140625,-0.935302734375,-0.36767578125,0.06103515625,2.86865234375,0.91552734375
2022-02-14 17:29:34.347180,727.762082,-0.0003662109375,-0.9345703125,-0.3680419921875,-0.06103515625,2.8076171875,0.9765625
2022-02-14 17:29:34.349180,727.76957,0.000244140625,-0.9354248046875,-0.3682861328125,0.0,2.74658203125,1.0986328125
2022-02-14 17:29:34.406179,727.786605,0.0001220703125,-0.9349365234375,-0.3680419921875,0.1220703125,2.8076171875,1.03759765625
2022-02-14 17:29:34.407180,727.819708,-0.0006103515625,-0.9354248046875,-0.366943359375,0.06103515625,2.62451171875,1.03759765625
2022-02-14 17:29:34.408180,727.828756,0.0003662109375,-0.9349365234375,-0.367431640625,0.18310546875,2.8076171875,1.03759765625
2022-02-14 17:29:34.466180,727.84683,0.0001220703125,-0.934814453125,-0.3670654296875,0.0,2.685546875,0.91552734375
2022-02-14 17:29:34.467179,727.882075,0.000244140625,-0.935302734375,-0.3685302734375,0.06103515625,2.99072265625,1.15966796875
2022-02-14 17:29:34.469179,727.888485,-0.0003662109375,-0.9346923828125,-0.367431640625,0.18310546875,2.86865234375,1.0986328125
2022-02-14 17:29:34.526180,727.905043,0.0001220703125,-0.9354248046875,-0.3677978515625,0.1220703125,2.685546875,0.91552734375
2022-02-14 17:29:34.527180,727.9401,-0.0001220703125,-0.9346923828125,-0.3681640625,0.18310546875,3.0517578125,1.15966796875
2022-02-14 17:29:34.529180,727.947571,-0.0003662109375,-0.9349365234375,-0.367919921875,0.244140625,2.86865234375,1.220703125
2022-02-14 17:29:34.586179,727.964619,0.000244140625,-0.9345703125,-0.368896484375,0.244140625,2.74658203125,0.91552734375
2022-02-14 17:29:34.587179,727.999308,0.000244140625,-0.9359130859375,-0.367431640625,0.06103515625,2.9296875,1.15966796875
2022-02-14 17:29:34.589179,728.007368,-0.0006103515625,-0.9366455078125,-0.369384765625,0.1220703125,2.86865234375,1.220703125
2022-02-14 17:29:34.647180,728.028932,0.0,-0.934814453125,-0.3680419921875,-0.244140625,2.685546875,0.9765625
2022-02-14 17:29:34.647180,728.063349,-0.000244140625,-0.935546875,-0.369384765625,0.18310546875,2.86865234375,1.220703125
2022-02-14 17:29:34.651179,728.066413,-0.0001220703125,-0.935546875,-0.3685302734375,0.18310546875,2.74658203125,1.0986328125
2022-02-14 17:29:34.706178,728.083838,0.000244140625,-0.9349365234375,-0.3692626953125,0.18310546875,2.685546875,0.8544921875
2022-02-14 17:29:34.707180,728.119724,-0.000244140625,-0.9349365234375,-0.36865234375,0.06103515625,2.685546875,1.03759765625
2022-02-14 17:29:34.709180,728.126022,-0.000244140625,-0.935302734375,-0.3681640625,-0.06103515625,2.8076171875,1.0986328125
2022-02-14 17:29:34.766179,728.143074,-0.0001220703125,-0.9356689453125,-0.368408203125,0.0,2.50244140625,0.9765625
2022-02-14 17:29:34.767180,728.182084,-0.00048828125,-0.9351806640625,-0.3685302734375,0.18310546875,2.86865234375,0.91552734375
2022-02-14 17:29:34.770178,728.185722,-0.000244140625,-0.93505859375,-0.367919921875,0.06103515625,2.74658203125,0.91552734375
2022-02-14 17:29:34.826180,728.202539,-0.000244140625,-0.9346923828125,-0.367919921875,0.06103515625,2.8076171875,1.03759765625
2022-02-14 17:29:34.827180,728.244054,-0.000244140625,-0.9346923828125,-0.368896484375,0.18310546875,2.8076171875,1.03759765625
2022-02-14 17:29:34.829180,728.253651,-0.0001220703125,-0.935302734375,-0.3685302734375,0.1220703125,2.8076171875,1.03759765625
2022-02-14 17:29:34.886179,728.275212,0.000244140625,-0.935302734375,-0.369140625,0.06103515625,2.50244140625,0.9765625
2022-02-14 17:29:34.945180,728.299716,-0.0010986328125,-0.935791015625,-0.36865234375,0.1220703125,2.86865234375,1.0986328125
2022-02-14 17:29:34.947179,728.304926,0.0001220703125,-0.9344482421875,-0.3682861328125,-0.06103515625,2.86865234375,1.28173828125
2022-02-14 17:29:34.947179,728.321622,-0.000244140625,-0.934814453125,-0.368896484375,0.18310546875,2.5634765625,1.15966796875
2022-02-14 17:29:34.949180,728.361351,-0.000244140625,-0.9365234375,-0.3682861328125,0.1220703125,2.86865234375,1.03759765625
2022-02-14 17:29:35.006180,728.380642,-0.0001220703125,-0.9349365234375,-0.3675537109375,0.1220703125,2.74658203125,0.9765625
2022-02-14 17:29:35.013179,728.423038,-0.000244140625,-0.9351806640625,-0.3680419921875,0.06103515625,2.8076171875,1.0986328125
2022-02-14 17:29:35.013179,728.431652,-0.0006103515625,-0.9345703125,-0.3681640625,0.1220703125,2.8076171875,1.03759765625
2022-02-14 17:29:35.066179,728.454017,-0.001220703125,-0.935546875,-0.3690185546875,0.0,2.5634765625,1.03759765625
2022-02-14 17:29:35.067180,728.479287,0.0,-0.9349365234375,-0.3677978515625,0.1220703125,2.62451171875,1.03759765625
2022-02-14 17:29:35.068180,728.484097,0.0003662109375,-0.9356689453125,-0.36767578125,0.1220703125,2.685546875,1.0986328125
2022-02-14 17:29:35.126179,728.499836,-0.0006103515625,-0.9349365234375,-0.367919921875,0.06103515625,2.62451171875,1.0986328125
2022-02-14 17:29:35.128179,728.539389,-0.0008544921875,-0.9354248046875,-0.3680419921875,0.18310546875,2.74658203125,1.15966796875
2022-02-14 17:29:35.128179,728.542457,-0.000244140625,-0.934814453125,-0.3682861328125,0.0,2.74658203125,1.15966796875
2022-02-14 17:29:35.186180,728.55902,0.0,-0.9346923828125,-0.368896484375,0.30517578125,2.5634765625,1.0986328125
2022-02-14 17:29:35.187179,728.600396,0.0,-0.9356689453125,-0.3692626953125,0.244140625,2.74658203125,1.15966796875
2022-02-14 17:29:35.188180,728.614925,-0.0009765625,-0.934814453125,-0.3685302734375,0.06103515625,2.74658203125,1.0986328125
2022-02-14 17:29:35.246180,728.627083,0.0,-0.935546875,-0.3690185546875,0.18310546875,2.62451171875,1.03759765625
2022-02-14 17:29:35.247180,728.662091,0.000244140625,-0.935546875,-0.3690185546875,0.1220703125,2.74658203125,0.9765625
2022-02-14 17:29:35.249180,728.669574,0.0003662109375,-0.9356689453125,-0.369873046875,0.06103515625,2.62451171875,0.9765625
2022-02-14 17:29:35.306179,728.686854,-0.00048828125,-0.93603515625,-0.3697509765625,0.1220703125,2.74658203125,0.9765625
2022-02-14 17:29:35.307179,728.719693,0.0001220703125,-0.9346923828125,-0.3690185546875,0.1220703125,2.8076171875,1.15966796875
2022-02-14 17:29:35.309180,728.734227,0.0001220703125,-0.935302734375,-0.369140625,0.06103515625,2.86865234375,1.0986328125
2022-02-14 17:29:35.366180,728.746835,0.0003662109375,-0.935546875,-0.36865234375,-0.06103515625,2.62451171875,1.03759765625
2022-02-14 17:29:35.367180,728.779506,-0.0003662109375,-0.935302734375,-0.369384765625,-0.06103515625,2.86865234375,1.15966796875
2022-02-14 17:29:35.370182,728.788655,-0.000244140625,-0.9346923828125,-0.3701171875,0.0,2.74658203125,1.0986328125
2022-02-14 17:29:35.426180,728.806282,0.0,-0.936279296875,-0.3699951171875,-0.18310546875,2.62451171875,0.91552734375
2022-02-14 17:29:35.427181,728.839498,-0.0003662109375,-0.9354248046875,-0.368896484375,-0.18310546875,2.9296875,1.220703125
2022-02-14 17:29:35.430181,728.84792,0.0001220703125,-0.935546875,-0.3699951171875,-0.1220703125,2.86865234375,1.0986328125
2022-02-14 17:29:35.492180,728.86977,0.0,-0.935546875,-0.3687744140625,0.06103515625,2.5634765625,1.03759765625
2022-02-14 17:29:35.492180,728.907674,-0.0003662109375,-0.9365234375,-0.3707275390625,0.18310546875,2.685546875,1.0986328125
2022-02-14 17:29:35.548179,728.924568,-0.000244140625,-0.9346923828125,-0.3687744140625,0.06103515625,2.685546875,0.9765625
2022-02-14 17:29:35.548179,728.960438,-0.0001220703125,-0.9346923828125,-0.368408203125,0.0,2.86865234375,1.03759765625
2022-02-14 17:29:35.552183,728.966727,0.0001220703125,-0.9351806640625,-0.369873046875,0.0,2.685546875,1.03759765625
2022-02-14 17:29:35.606180,728.983783,0.0,-0.9365234375,-0.369140625,0.1220703125,2.5634765625,1.15966796875
2022-02-14 17:29:35.607180,729.019296,0.000244140625,-0.935791015625,-0.36865234375,0.06103515625,2.44140625,0.8544921875
2022-02-14 17:29:35.608179,729.026284,-0.0003662109375,-0.935791015625,-0.36962890625,0.0,2.62451171875,1.03759765625
2022-02-14 17:29:35.667179,729.043311,0.0003662109375,-0.935791015625,-0.368408203125,-0.18310546875,2.685546875,0.9765625
2022-02-14 17:29:35.667179,729.079491,-0.000732421875,-0.935302734375,-0.3690185546875,0.18310546875,2.8076171875,1.220703125
2022-02-14 17:29:35.669179,729.085738,-0.0009765625,-0.935546875,-0.369873046875,0.18310546875,2.8076171875,1.220703125
2022-02-14 17:29:35.726180,729.102774,0.0001220703125,-0.934814453125,-0.369384765625,0.0,2.5634765625,0.91552734375
2022-02-14 17:29:35.727179,729.142038,-0.0008544921875,-0.9356689453125,-0.3697509765625,0.1220703125,2.8076171875,1.28173828125
2022-02-14 17:29:35.728180,729.145141,0.0,-0.9359130859375,-0.3690185546875,0.18310546875,2.8076171875,1.28173828125
2022-02-14 17:29:35.786180,729.162013,0.0001220703125,-0.9356689453125,-0.3687744140625,-0.06103515625,2.74658203125,0.8544921875
2022-02-14 17:29:35.787180,729.203278,-0.00048828125,-0.935791015625,-0.3701171875,0.0,2.8076171875,1.15966796875
2022-02-14 17:29:35.796179,729.217949,-0.0006103515625,-0.934326171875,-0.3690185546875,0.1220703125,2.5634765625,0.91552734375
2022-02-14 17:29:35.846179,729.231101,-0.00048828125,-0.934814453125,-0.3682861328125,0.06103515625,2.8076171875,1.0986328125
2022-02-14 17:29:35.847180,729.259431,0.0003662109375,-0.935791015625,-0.369140625,0.06103515625,2.8076171875,1.15966796875
2022-02-14 17:29:35.848180,729.265196,0.0,-0.9349365234375,-0.3692626953125,0.1220703125,2.74658203125,1.0986328125
2022-02-14 17:29:35.906181,729.285941,0.0,-0.935302734375,-0.3697509765625,-0.1220703125,2.685546875,1.03759765625
2022-02-14 17:29:35.907182,729.319394,-0.0001220703125,-0.9349365234375,-0.3685302734375,-0.06103515625,2.86865234375,0.91552734375
2022-02-14 17:29:35.908182,729.324625,0.0003662109375,-0.934814453125,-0.3685302734375,0.0,2.8076171875,1.28173828125
2022-02-14 17:29:35.966180,729.340375,-0.00048828125,-0.935546875,-0.3690185546875,0.1220703125,2.5634765625,0.9765625
2022-02-14 17:29:35.967180,729.379378,-0.00048828125,-0.9354248046875,-0.3690185546875,0.18310546875,2.8076171875,1.28173828125
2022-02-14 17:29:35.969180,729.384085,-0.000244140625,-0.935791015625,-0.3675537109375,-0.06103515625,2.9296875,1.15966796875
2022-02-14 17:29:36.027179,729.39983,-0.0003662109375,-0.93505859375,-0.3682861328125,0.06103515625,2.86865234375,1.03759765625
2022-02-14 17:29:36.027179,729.43938,-0.0006103515625,-0.9354248046875,-0.369384765625,0.06103515625,2.62451171875,1.220703125
2022-02-14 17:29:36.035179,729.442469,0.000244140625,-0.9349365234375,-0.36865234375,0.06103515625,2.74658203125,1.0986328125
2022-02-14 17:29:36.086179,729.45955,0.0,-0.934814453125,-0.368896484375,0.244140625,2.685546875,0.91552734375
2022-02-14 17:29:36.087180,729.499377,-0.0010986328125,-0.9354248046875,-0.3687744140625,-0.244140625,2.8076171875,1.0986328125
2022-02-14 17:29:36.088180,729.515014,-0.000732421875,-0.9351806640625,-0.36865234375,-0.06103515625,2.8076171875,1.03759765625
2022-02-14 17:29:36.146179,729.527631,-0.00048828125,-0.9354248046875,-0.36865234375,0.06103515625,2.62451171875,0.91552734375
2022-02-14 17:29:36.147180,729.559496,-0.0001220703125,-0.9364013671875,-0.36865234375,0.1220703125,2.62451171875,1.15966796875
2022-02-14 17:29:36.148180,729.574212,-0.00048828125,-0.935546875,-0.3673095703125,0.1220703125,2.74658203125,0.9765625
2022-02-14 17:29:36.210178,729.586825,-0.0010986328125,-0.9349365234375,-0.368896484375,0.0,2.685546875,0.9765625
2022-02-14 17:29:36.210178,729.634466,-0.0003662109375,-0.934814453125,-0.3680419921875,0.0,2.86865234375,1.0986328125
2022-02-14 17:29:36.266200,729.646168,0.0001220703125,-0.93603515625,-0.3695068359375,0.06103515625,2.74658203125,1.0986328125
2022-02-14 17:29:36.267180,729.679457,0.0001220703125,-0.9345703125,-0.3692626953125,0.0,2.8076171875,1.15966796875
2022-02-14 17:29:36.269180,729.69393,0.0,-0.9349365234375,-0.3682861328125,0.0,2.685546875,1.15966796875
2022-02-14 17:29:36.326179,729.70711,-0.00048828125,-0.9373779296875,-0.3687744140625,0.0,2.50244140625,0.9765625
2022-02-14 17:29:36.327180,729.742049,-0.000732421875,-0.935791015625,-0.3690185546875,-0.06103515625,2.86865234375,1.220703125
2022-02-14 17:29:36.328180,729.748474,0.0001220703125,-0.9351806640625,-0.3687744140625,-0.06103515625,2.86865234375,1.03759765625
2022-02-14 17:29:36.387179,729.765034,-0.0001220703125,-0.9349365234375,-0.3699951171875,0.06103515625,2.685546875,0.9765625
2022-02-14 17:29:36.387179,729.799705,0.0,-0.9349365234375,-0.36962890625,0.06103515625,2.9296875,1.0986328125
2022-02-14 17:29:36.388180,729.807639,-0.0010986328125,-0.935302734375,-0.367919921875,0.0,2.74658203125,1.03759765625
2022-02-14 17:29:36.446210,729.824585,-0.0001220703125,-0.934814453125,-0.36865234375,0.06103515625,2.62451171875,0.9765625
2022-02-14 17:29:36.448179,729.864035,0.00048828125,-0.934326171875,-0.3681640625,0.18310546875,2.62451171875,1.28173828125
2022-02-14 17:29:36.449180,729.867117,-0.0001220703125,-0.9351806640625,-0.368896484375,0.1220703125,2.74658203125,1.0986328125
2022-02-14 17:29:36.509181,729.919438,0.0,-0.934814453125,-0.3692626953125,0.18310546875,2.74658203125,1.220703125
2022-02-14 17:29:36.510181,729.926835,-0.0006103515625,-0.9359130859375,-0.369384765625,0.06103515625,2.8076171875,1.0986328125
2022-02-14 17:29:36.566181,729.943823,-0.00048828125,-0.9349365234375,-0.368408203125,0.06103515625,2.685546875,0.9765625
2022-02-14 17:29:36.567180,729.979506,0.0001220703125,-0.93505859375,-0.3701171875,0.06103515625,3.0517578125,1.0986328125
2022-02-14 17:29:36.569182,729.985973,0.000244140625,-0.935791015625,-0.3690185546875,0.06103515625,2.8076171875,0.9765625
2022-02-14 17:29:36.626179,730.003031,-0.0003662109375,-0.9349365234375,-0.3695068359375,0.0,2.62451171875,1.03759765625
2022-02-14 17:29:36.627180,730.039502,0.0,-0.9344482421875,-0.369140625,-0.1220703125,2.74658203125,1.15966796875
2022-02-14 17:29:36.628179,730.045432,-0.00048828125,-0.935546875,-0.3692626953125,0.0,2.86865234375,1.03759765625
2022-02-14 17:29:36.686181,730.062587,-0.0008544921875,-0.934814453125,-0.368408203125,0.244140625,2.8076171875,0.8544921875
2022-02-14 17:29:36.687181,730.0995,0.000244140625,-0.9351806640625,-0.3681640625,0.06103515625,2.8076171875,1.15966796875
2022-02-14 17:29:36.688181,730.104864,-0.00048828125,-0.9356689453125,-0.3690185546875,-0.06103515625,2.86865234375,1.220703125
2022-02-14 17:29:36.808183,730.121983,-0.000732421875,-0.935302734375,-0.3673095703125,0.06103515625,2.50244140625,0.9765625
2022-02-14 17:29:36.809183,730.164921,-0.000732421875,-0.9349365234375,-0.3680419921875,-0.06103515625,2.86865234375,0.8544921875
2022-02-14 17:29:36.867223,730.181587,-0.000244140625,-0.934326171875,-0.3682861328125,-0.06103515625,2.62451171875,0.91552734375
2022-02-14 17:29:36.867223,730.279411,0.000244140625,-0.935791015625,-0.3687744140625,0.1220703125,2.8076171875,1.220703125
2022-02-14 17:29:36.870179,730.284607,-0.0001220703125,-0.9354248046875,-0.3681640625,0.0,2.8076171875,1.0986328125
2022-02-14 17:29:36.926179,730.30038,0.04931640625,-0.9322509765625,-0.294189453125,0.244140625,2.8076171875,1.28173828125
2022-02-14 17:29:36.927180,730.339412,0.0631103515625,-0.8626708984375,-0.517822265625,6.2255859375,-5.31005859375,-1.8310546875
2022-02-14 17:29:36.929179,730.3441,0.0633544921875,-0.93310546875,-0.542236328125,-7.99560546875,-9.8876953125,-3.60107421875
2022-02-14 17:29:37.046179,730.359833,-0.0418701171875,-0.9061279296875,-0.4613037109375,-71.4111328125,13.0615234375,1.953125
2022-02-14 17:29:37.047180,730.400434,0.095947265625,-1.005615234375,-0.258544921875,-10.80322265625,-19.59228515625,-15.9912109375
2022-02-14 17:29:37.048180,730.416007,0.113037109375,-1.02880859375,-0.2291259765625,-20.8740234375,-16.78466796875,-27.52685546875
2022-02-14 17:29:37.106179,730.428065,0.0081787109375,-1.0291748046875,-0.237060546875,-52.001953125,-9.033203125,-44.61669921875
2022-02-14 17:29:37.107180,730.519486,-0.128173828125,-0.9957275390625,-0.1849365234375,-115.72265625,17.578125,-121.4599609375
2022-02-14 17:29:37.108180,730.534455,-0.1724853515625,-1.1005859375,-0.220703125,-104.06494140625,17.88330078125,-139.09912109375
2022-02-14 17:29:37.166217,730.5471,-0.2557373046875,-0.9569091796875,-0.2742919921875,-108.642578125,8.9111328125,-191.89453125
2022-02-14 17:29:37.167181,730.579481,-0.458740234375,-1.0595703125,-0.083740234375,-134.70458984375,-26.30615234375,-110.3515625
2022-02-14 17:29:37.169180,730.593917,-0.4974365234375,-1.086669921875,-0.0220947265625,-132.080078125,-37.29248046875,-103.759765625
2022-02-14 17:29:37.226181,730.606769,-0.48486328125,-1.1070556640625,0.1029052734375,-116.943359375,-52.1240234375,-79.58984375
2022-02-14 17:29:37.227180,730.639504,-0.560302734375,-0.9798583984375,0.31494140625,-86.7919921875,-44.37255859375,-24.7802734375
2022-02-14 17:29:37.228181,730.648711,-0.531982421875,-0.9378662109375,0.3538818359375,-83.43505859375,-37.65869140625,-15.93017578125
2022-02-14 17:29:37.288180,730.666836,-0.4730224609375,-0.8682861328125,0.385498046875,-71.77734375,-15.9912109375,-4.21142578125
2022-02-14 17:29:37.288180,730.699503,-0.41796875,-0.7623291015625,0.1611328125,-73.486328125,46.5087890625,4.5166015625
2022-02-14 17:29:37.288180,730.708172,-0.4144287109375,-0.758056640625,0.090087890625,-75.0732421875,49.74365234375,3.5400390625
2022-02-14 17:29:37.348180,730.729735,-0.3818359375,-0.7801513671875,0.0252685546875,-73.8525390625,37.17041015625,-0.54931640625
2022-02-14 17:29:37.348180,730.762256,-0.437744140625,-0.856201171875,0.2066650390625,-71.59423828125,-8.11767578125,1.40380859375
2022-02-14 17:29:37.351181,730.768171,-0.46044921875,-0.8629150390625,0.27783203125,-68.17626953125,-17.9443359375,5.37109375
2022-02-14 17:29:37.406180,730.784584,-0.4512939453125,-0.86181640625,0.368408203125,-56.640625,-27.40478515625,17.2119140625
2022-02-14 17:29:37.467179,730.819684,-0.4224853515625,-0.809814453125,0.390869140625,-52.67333984375,-5.126953125,38.4521484375
2022-02-14 17:29:37.467179,730.827099,-0.4163818359375,-0.8035888671875,0.3824462890625,-51.1474609375,-2.685546875,39.97802734375
2022-02-14 17:29:37.469180,730.843727,-0.40234375,-0.802001953125,0.3804931640625,-53.52783203125,-3.2958984375,38.87939453125
2022-02-14 17:29:37.469180,730.88329,-0.42578125,-0.8665771484375,0.38330078125,-66.2841796875,-8.36181640625,30.70068359375
2022-02-14 17:29:37.526181,730.894826,-0.4068603515625,-0.9227294921875,0.3179931640625,-70.25146484375,-9.6435546875,35.64453125
2022-02-14 17:29:37.527181,730.94006,-0.3651123046875,-0.8330078125,0.3675537109375,-48.095703125,-38.818359375,77.0263671875
2022-02-14 17:29:37.528181,730.945926,-0.37744140625,-0.8482666015625,0.46728515625,-55.6640625,-44.98291015625,79.04052734375
2022-02-14 17:29:37.586211,730.962712,-0.4151611328125,-0.81884765625,0.5087890625,-65.673828125,-40.0390625,86.85302734375
2022-02-14 17:29:37.587181,730.999259,-0.349365234375,-0.688720703125,0.62109375,-79.345703125,-21.91162109375,95.703125
2022-02-14 17:29:37.588180,731.005168,-0.333984375,-0.6468505859375,0.651123046875,-80.13916015625,-15.9912109375,94.29931640625
2022-02-14 17:29:37.646211,731.022271,-0.303466796875,-0.566650390625,0.68505859375,-66.58935546875,-5.859375,87.2802734375
2022-02-14 17:29:37.647180,731.059489,-0.1953125,-0.4346923828125,0.646240234375,-64.94140625,26.2451171875,50.4150390625
2022-02-14 17:29:37.649179,731.064854,-0.17822265625,-0.421630859375,0.6033935546875,-67.138671875,35.82763671875,36.80419921875
2022-02-14 17:29:37.706179,731.08198,-0.1771240234375,-0.4517822265625,0.566162109375,-72.75390625,45.71533203125,9.94873046875
2022-02-14 17:29:37.707180,731.119517,-0.1396484375,-0.48583984375,0.4656982421875,-61.82861328125,46.9970703125,-16.78466796875
2022-02-14 17:29:37.708181,731.124859,-0.1368408203125,-0.485595703125,0.462890625,-53.3447265625,39.6728515625,-20.751953125
2022-02-14 17:29:37.766180,731.146451,-0.1290283203125,-0.5030517578125,0.509521484375,-40.95458984375,21.78955078125,-27.587890625
2022-02-14 17:29:37.767181,731.179391,-0.1507568359375,-0.59130859375,0.65673828125,-25.5126953125,2.99072265625,-28.6865234375
2022-02-14 17:29:37.770179,731.184629,-0.1500244140625,-0.5821533203125,0.65283203125,-13.00048828125,3.2958984375,-22.94921875
2022-02-14 17:29:37.826180,731.200696,-0.158447265625,-0.5333251953125,0.591552734375,-0.79345703125,5.126953125,-15.0146484375
2022-02-14 17:29:37.827182,731.23939,-0.1566162109375,-0.533203125,0.6209716796875,10.68115234375,-5.0048828125,-15.0146484375
2022-02-14 17:29:37.828182,731.244085,-0.1561279296875,-0.52783203125,0.6326904296875,11.71875,-5.4931640625,-15.07568359375
2022-02-14 17:29:37.886179,731.260365,-0.1904296875,-0.5128173828125,0.628173828125,12.26806640625,-4.57763671875,-17.822265625
2022-02-14 17:29:37.887179,731.299419,-0.2171630859375,-0.4935302734375,0.615478515625,25.7568359375,-6.40869140625,-27.099609375
2022-02-14 17:29:37.888180,731.302493,-0.250244140625,-0.4666748046875,0.5986328125,31.1279296875,-7.99560546875,-30.76171875
2022-02-14 17:29:37.946178,731.319533,-0.2701416015625,-0.3944091796875,0.600341796875,45.59326171875,-15.56396484375,-39.48974609375
2022-02-14 17:29:37.947180,731.359419,-0.263916015625,-0.009521484375,0.9442138671875,160.09521484375,-24.658203125,-113.28125
2022-02-14 17:29:37.949179,731.374984,-0.276611328125,-0.0670166015625,0.971923828125,77.08740234375,10.68115234375,-166.3818359375
2022-02-14 17:29:38.006179,731.387633,-0.638671875,-0.2484130859375,0.7672119140625,-1.5869140625,88.623046875,-248.84033203125
2022-02-14 17:29:38.008179,731.419536,-0.7613525390625,-0.5391845703125,0.4613037109375,28.50341796875,122.37548828125,-297.79052734375
2022-02-14 17:29:38.008179,731.434182,-0.8116455078125,-0.7335205078125,0.3485107421875,24.5361328125,111.63330078125,-294.5556640625
2022-02-14 17:29:38.066182,731.446825,-0.7723388671875,-0.916748046875,0.3089599609375,24.2919921875,79.2236328125,-268.73779296875
2022-02-14 17:29:38.067181,731.4795,-0.6790771484375,-1.1912841796875,0.381103515625,36.4990234375,7.6904296875,-157.71484375
2022-02-14 17:29:38.069182,731.494211,-0.4534912109375,-1.2635498046875,0.298583984375,37.9638671875,-2.50244140625,-123.9013671875
2022-02-14 17:29:38.126183,731.506784,-0.6405029296875,-1.3316650390625,0.1220703125,-11.962890625,-5.92041015625,-52.55126953125
2022-02-14 17:29:38.127184,731.539495,-0.79541015625,-1.04443359375,0.3707275390625,63.96484375,-129.39453125,112.6708984375
2022-02-14 17:29:38.129184,731.548699,-0.8045654296875,-0.9541015625,0.487548828125,68.603515625,-145.8740234375,140.13671875
2022-02-14 17:29:38.186179,731.566803,-0.8079833984375,-0.749755859375,0.685791015625,67.5048828125,-157.77587890625,177.42919921875
2022-02-14 17:29:38.187182,731.599493,-0.691650390625,-0.5367431640625,0.8524169921875,44.61669921875,-96.19140625,161.1328125
2022-02-14 17:29:38.188180,731.608158,-0.6531982421875,-0.5274658203125,0.835693359375,35.64453125,-68.359375,146.6064453125
2022-02-14 17:29:38.246179,731.629727,-0.5894775390625,-0.5142822265625,0.71728515625,26.9775390625,-16.11328125,120.05615234375
2022-02-14 17:29:38.305212,731.662241,-0.51708984375,-0.529541015625,0.3717041015625,15.19775390625,33.75244140625,68.90869140625
2022-02-14 17:29:38.306181,731.668167,-0.5146484375,-0.55126953125,0.3116455078125,18.12744140625,32.53173828125,56.7626953125
2022-02-14 17:29:38.308180,731.684713,-0.4896240234375,-0.63671875,0.2728271484375,17.2119140625,20.3857421875,35.46142578125
2022-02-14 17:29:38.309180,731.718446,-0.4615478515625,-0.7198486328125,0.3134765625,23.49853515625,-2.50244140625,22.216796875
2022-02-14 17:29:38.366206,731.744002,-0.445068359375,-0.788818359375,0.353515625,20.08056640625,-2.86865234375,14.46533203125
2022-02-14 17:29:38.367180,731.782296,-0.421630859375,-0.7777099609375,0.2781982421875,26.0009765625,0.30517578125,10.19287109375
2022-02-14 17:29:38.369179,731.787617,-0.420166015625,-0.77880859375,0.28076171875,24.658203125,-1.77001953125,6.7138671875
2022-02-14 17:29:38.426179,731.803603,-0.4453125,-0.8148193359375,0.3238525390625,17.02880859375,-5.43212890625,-2.25830078125
2022-02-14 17:29:38.427181,731.844033,-0.47265625,-0.8795166015625,0.35107421875,15.7470703125,1.46484375,-4.57763671875
2022-02-14 17:29:38.428180,731.859736,-0.4678955078125,-0.8968505859375,0.3270263671875,15.31982421875,2.3193359375,-3.60107421875
2022-02-14 17:29:38.486211,731.871794,-0.470703125,-0.89208984375,0.288330078125,14.6484375,3.47900390625,-0.06103515625
2022-02-14 17:29:38.487200,731.902037,-0.4683837890625,-0.8536376953125,0.264892578125,15.869140625,-0.54931640625,6.8359375
2022-02-14 17:29:38.489180,731.905685,-0.46044921875,-0.8411865234375,0.266845703125,15.2587890625,-2.5634765625,7.75146484375
2022-02-14 17:29:38.546179,731.922514,-0.46533203125,-0.823486328125,0.306640625,14.34326171875,-6.53076171875,7.568359375
2022-02-14 17:29:38.547180,731.963296,-0.4644775390625,-0.82275390625,0.294189453125,2.5634765625,0.42724609375,-4.82177734375
2022-02-14 17:29:38.606210,731.978445,-0.4764404296875,-0.8846435546875,0.2962646484375,-0.91552734375,1.64794921875,-7.32421875
2022-02-14 17:29:38.607180,731.991072,-0.514404296875,-0.96875,0.30419921875,-7.6904296875,3.96728515625,-8.544921875
2022-02-14 17:29:38.608180,732.020242,-0.564697265625,-1.0980224609375,0.363037109375,-16.78466796875,2.74658203125,3.90625
2022-02-14 17:29:38.666179,732.033152,-0.5908203125,-1.190673828125,0.4464111328125,-30.6396484375,5.06591796875,20.44677734375
2022-02-14 17:29:38.667180,732.079419,-0.5740966796875,-1.2841796875,0.5233154296875,-48.095703125,43.8232421875,100.52490234375
2022-02-14 17:29:38.668180,732.085184,-0.5634765625,-1.259521484375,0.5184326171875,-55.2978515625,52.30712890625,117.431640625
2022-02-14 17:29:38.726181,732.100861,-0.5211181640625,-1.1431884765625,0.49755859375,-49.13330078125,60.6689453125,150.7568359375
2022-02-14 17:29:38.727181,732.140421,-0.4056396484375,-0.971923828125,0.4879150390625,-87.0361328125,88.134765625,175.4150390625
2022-02-14 17:29:38.728180,732.143487,-0.3568115234375,-0.9129638671875,0.4697265625,-89.35546875,96.435546875,179.443359375
2022-02-14 17:29:38.786179,732.160518,-0.25732421875,-0.780517578125,0.4185791015625,-88.5009765625,109.80224609375,181.21337890625
2022-02-14 17:29:38.787181,732.202021,0.052734375,-0.484619140625,0.2886962890625,-81.4208984375,100.5859375,130.126953125
2022-02-14 17:29:38.788181,732.211161,0.0667724609375,-0.4539794921875,0.2943115234375,-83.6181640625,90.33203125,110.53466796875
2022-02-14 17:29:38.846179,732.23272,0.126953125,-0.4510498046875,0.376220703125,-93.26171875,69.9462890625,67.5048828125
2022-02-14 17:29:38.847180,732.262049,0.1143798828125,-0.62353515625,0.68212890625,-113.4033203125,43.45703125,-2.44140625
2022-02-14 17:29:38.848180,732.270609,0.0997314453125,-0.6668701171875,0.7474365234375,-115.966796875,45.10498046875,-11.474609375
2022-02-14 17:29:38.906180,732.289073,0.056396484375,-0.7298583984375,0.85205078125,-118.896484375,55.6640625,-22.76611328125
2022-02-14 17:29:38.907180,732.324012,0.0458984375,-0.7279052734375,0.916015625,-84.1064453125,96.3134765625,-11.5966796875
2022-02-14 17:29:38.909181,732.330454,0.0494384765625,-0.7020263671875,0.89453125,-78.18603515625,107.84912109375,-6.77490234375
2022-02-14 17:29:38.966214,732.347015,0.0802001953125,-0.651123046875,0.847900390625,-70.3125,120.54443359375,0.1220703125
2022-02-14 17:29:39.026211,732.379486,0.1446533203125,-0.6229248046875,0.880859375,-77.2705078125,127.13623046875,7.62939453125
2022-02-14 17:29:39.027181,732.394731,0.1478271484375,-0.6185302734375,0.8974609375,-78.2470703125,131.77490234375,7.4462890625
2022-02-14 17:29:39.029179,732.406796,0.0556640625,-0.5986328125,0.882080078125,-84.5947265625,156.73828125,5.126953125
2022-02-14 17:29:39.086179,732.450921,0.0673828125,-0.4033203125,0.5950927734375,-55.35888671875,213.56201171875,15.19775390625
2022-02-14 17:29:39.087180,732.501033,0.222412109375,-0.23388671875,0.4774169921875,-39.00146484375,206.1767578125,-7.38525390625
2022-02-14 17:29:39.089179,732.508515,0.2476806640625,-0.2032470703125,0.4569091796875,-43.0908203125,209.04541015625,-14.5263671875
2022-02-14 17:29:39.146179,732.525566,0.3775634765625,-0.1474609375,0.379150390625,-54.6875,218.994140625,-33.447265625
2022-02-14 17:29:39.147180,732.563298,0.54345703125,-0.166748046875,0.23193359375,-78.18603515625,210.38818359375,-100.03662109375
2022-02-14 17:29:39.150179,732.569188,0.552734375,-0.1954345703125,0.2310791015625,-83.19091796875,201.72119140625,-116.0888671875
2022-02-14 17:29:39.206213,732.589901,0.5611572265625,-0.2930908203125,0.2464599609375,-88.92822265625,183.2275390625,-144.6533203125
2022-02-14 17:29:39.207180,732.620071,0.6134033203125,-0.5201416015625,0.3226318359375,-106.4453125,165.34423828125,-186.03515625
2022-02-14 17:29:39.209180,732.627526,0.629638671875,-0.5753173828125,0.348388671875,-101.98974609375,160.64453125,-190.49072265625
2022-02-14 17:29:39.266179,732.644553,0.669677734375,-0.6737060546875,0.364013671875,-93.75,155.70068359375,-193.29833984375
2022-02-14 17:29:39.267180,732.679239,0.587158203125,-0.806884765625,0.368896484375,-97.83935546875,149.96337890625,-195.556640625
2022-02-14 17:29:39.268180,732.686778,0.552978515625,-0.8177490234375,0.3819580078125,-107.60498046875,149.658203125,-195.6787109375
2022-02-14 17:29:39.327179,732.703831,0.5286865234375,-0.81005859375,0.3533935546875,-121.58203125,155.76171875,-197.998046875
2022-02-14 17:29:39.327179,732.742026,0.4486083984375,-0.738037109375,0.2725830078125,-169.49462890625,152.16064453125,-234.9853515625
2022-02-14 17:29:39.333179,732.747358,0.4256591796875,-0.754638671875,0.2464599609375,-177.3681640625,149.4140625,-245.91064453125
2022-02-14 17:29:39.386180,732.763616,0.3641357421875,-0.8077392578125,0.2147216796875,-201.904296875,139.22119140625,-265.44189453125
2022-02-14 17:29:39.387180,732.804019,0.026123046875,-0.9864501953125,0.582763671875,-233.33740234375,49.98779296875,-312.56103515625
2022-02-14 17:29:39.388180,732.813703,-0.0701904296875,-1.001220703125,0.8436279296875,-228.45458984375,35.5224609375,-315.85693359375
2022-02-14 17:29:39.446179,732.832045,-0.12939453125,-0.9346923828125,1.007568359375,-203.18603515625,32.40966796875,-305.72509765625
2022-02-14 17:29:39.447180,732.86202,-0.30029296875,-0.7803955078125,1.0355224609375,-185.85205078125,71.59423828125,-293.701171875
2022-02-14 17:29:39.449179,732.865084,-0.3251953125,-0.77294921875,0.9674072265625,-182.12890625,84.716796875,-294.61669921875
2022-02-14 17:29:39.506179,732.882515,-0.3653564453125,-0.7568359375,0.8621826171875,-180.35888671875,102.05078125,-292.236328125
2022-02-14 17:29:39.507180,732.924013,-0.434814453125,-0.8363037109375,0.61083984375,-155.3955078125,92.46826171875,-247.0703125
2022-02-14 17:29:39.508180,732.933168,-0.433349609375,-0.8507080078125,0.5960693359375,-143.06640625,80.62744140625,-228.57666015625
2022-02-14 17:29:39.567184,732.979226,-0.2747802734375,-0.9632568359375,0.7489013671875,-57.18994140625,25.0244140625,-96.3134765625
2022-02-14 17:29:39.571183,732.985167,-0.2396240234375,-0.955078125,0.791259765625,-34.0576171875,18.5546875,-64.453125
2022-02-14 17:29:39.626211,733.006446,-0.184814453125,-0.8714599609375,0.833984375,-6.16455078125,18.37158203125,-6.04248046875
2022-02-14 17:29:39.627181,733.041038,-0.1195068359375,-0.5814208984375,0.8328857421875,24.10888671875,31.1279296875,76.904296875
2022-02-14 17:29:39.628180,733.056716,-0.1474609375,-0.4449462890625,0.85107421875,10.8642578125,41.015625,78.79638671875
2022-02-14 17:29:39.686179,733.069003,-0.1304931640625,-0.32568359375,0.888916015625,13.12255859375,59.38720703125,74.3408203125
2022-02-14 17:29:39.687180,733.099245,-0.2159423828125,-0.2637939453125,1.0576171875,-7.8125,112.1826171875,35.21728515625
2022-02-14 17:29:39.688180,733.104608,-0.2069091796875,-0.265625,1.1019287109375,-18.6767578125,138.671875,20.5078125
2022-02-14 17:29:39.805178,733.120058,-0.1488037109375,-0.2723388671875,1.115966796875,-33.38623046875,194.03076171875,-6.28662109375
2022-02-14 17:29:39.806180,733.16103,-0.012451171875,-0.541015625,0.7218017578125,-67.87109375,266.6015625,-45.7763671875
2022-02-14 17:29:39.807181,733.176175,0.0247802734375,-0.5770263671875,0.6385498046875,-62.19482421875,266.90673828125,-43.8232421875
2022-02-14 17:29:39.809180,733.188777,0.0535888671875,-0.6749267578125,0.5135498046875,-71.83837890625,265.625,-38.330078125
2022-02-14 17:29:39.866180,733.232897,0.35986328125,-0.7418212890625,0.3521728515625,-3.47900390625,196.71630859375,44.86083984375
2022-02-14 17:29:39.867182,733.283017,0.5467529296875,-0.48974609375,0.46142578125,90.4541015625,79.345703125,155.8837890625
2022-02-14 17:29:39.869179,733.289987,0.5579833984375,-0.4468994140625,0.5030517578125,98.44970703125,67.81005859375,168.3349609375
2022-02-14 17:29:39.926213,733.307018,0.5570068359375,-0.416015625,0.548095703125,75.13427734375,67.138671875,180.48095703125
2022-02-14 17:29:39.927180,733.339419,0.544677734375,-0.26513671875,0.4248046875,46.32568359375,91.24755859375,205.99365234375
2022-02-14 17:29:39.986179,733.354438,0.5704345703125,-0.23779296875,0.39111328125,51.08642578125,92.7734375,209.28955078125
2022-02-14 17:29:39.987180,733.367038,0.635986328125,-0.2008056640625,0.347412109375,58.7158203125,89.599609375,215.8203125
2022-02-14 17:29:39.988180,733.401271,0.7318115234375,-0.0303955078125,0.2813720703125,102.783203125,48.15673828125,250.30517578125
2022-02-14 17:29:40.046180,733.422716,0.6939697265625,0.0643310546875,0.302490234375,125.79345703125,14.0380859375,262.51220703125
2022-02-14 17:29:40.047180,733.462022,0.596435546875,0.239990234375,0.463623046875,134.6435546875,-24.96337890625,264.6484375
2022-02-14 17:29:40.048182,733.468446,0.5970458984375,0.2799072265625,0.485595703125,126.953125,-23.5595703125,262.26806640625
2022-02-14 17:29:40.106180,733.48556,0.586181640625,0.35888671875,0.5257568359375,116.2109375,-18.73779296875,256.2255859375
2022-02-14 17:29:40.107181,733.520057,0.6134033203125,0.5401611328125,0.570068359375,106.8115234375,-11.29150390625,246.09375
2022-02-14 17:29:40.108182,733.528059,0.5858154296875,0.575927734375,0.5487060546875,107.0556640625,-8.544921875,249.57275390625
2022-02-14 17:29:40.226180,733.544694,0.54443359375,0.624267578125,0.537353515625,91.00341796875,-1.77001953125,291.44287109375
2022-02-14 17:29:40.227180,733.580055,0.4932861328125,0.739013671875,0.421875,113.4033203125,2.62451171875,210.38818359375
2022-02-14 17:29:40.228180,733.587514,0.4661865234375,0.741943359375,0.397216796875,117.7978515625,-3.72314453125,199.3408203125
2022-02-14 17:29:40.230180,733.604,0.423583984375,0.734375,0.388916015625,113.70849609375,-18.49365234375,179.5654296875
2022-02-14 17:29:40.286180,733.646612,0.398193359375,0.677001953125,0.51708984375,92.10205078125,-46.142578125,154.78515625
2022-02-14 17:29:40.287180,733.702033,0.1607666015625,0.44091796875,0.583251953125,128.2958984375,-64.94140625,152.4658203125
2022-02-14 17:29:40.288180,733.707335,0.1385498046875,0.4169921875,0.604736328125,131.34765625,-70.49560546875,157.89794921875
2022-02-14 17:29:40.346181,733.723059,0.13232421875,0.395263671875,0.663818359375,144.287109375,-86.12060546875,174.98779296875
2022-02-14 17:29:40.407179,733.764002,-0.02490234375,0.3214111328125,0.7730712890625,208.984375,-120.7275390625,218.44482421875
2022-02-14 17:29:40.407179,733.779169,-0.1453857421875,0.270263671875,0.779541015625,216.97998046875,-129.2724609375,220.76416015625
2022-02-14 17:29:40.409180,733.791769,-0.160400390625,0.19580078125,0.83642578125,227.47802734375,-156.06689453125,218.505859375
2022-02-14 17:29:40.466180,733.825092,-0.29248046875,0.087158203125,1.1302490234375,204.89501953125,-214.90478515625,190.49072265625
2022-02-14 17:29:40.467180,733.88004,-0.3717041015625,-0.0760498046875,1.4007568359375,117.431640625,-151.91650390625,125.3662109375
2022-02-14 17:29:40.468180,733.885908,-0.3790283203125,-0.1019287109375,1.41552734375,109.06982421875,-133.544921875,117.1875
2022-02-14 17:29:40.526182,733.901614,-0.365478515625,-0.12939453125,1.4010009765625,96.49658203125,-92.46826171875,104.6142578125
2022-02-14 17:29:40.532184,733.942031,-0.347900390625,-0.1514892578125,1.21240234375,89.17236328125,0.732421875,78.67431640625
2022-02-14 17:29:40.532184,733.951697,-0.3477783203125,-0.1663818359375,1.010986328125,87.7685546875,15.9912109375,73.974609375
2022-02-14 17:29:40.586180,733.969799,-0.34765625,-0.2130126953125,0.83447265625,69.88525390625,34.7900390625,63.3544921875
2022-02-14 17:29:40.587184,734.000036,-0.33642578125,-0.2935791015625,0.6971435546875,110.65673828125,25.69580078125,65.3076171875
2022-02-14 17:29:40.588180,734.003674,-0.32763671875,-0.3056640625,0.6900634765625,117.61474609375,15.44189453125,66.89453125
2022-02-14 17:29:40.646180,734.02052,-0.3143310546875,-0.346435546875,0.7193603515625,130.55419921875,-9.70458984375,65.85693359375
2022-02-14 17:29:40.647181,734.059497,-0.40380859375,-0.4783935546875,1.0250244140625,121.4599609375,-53.16162109375,38.818359375
2022-02-14 17:29:40.648182,734.064298,-0.4329833984375,-0.5,1.099365234375,118.95751953125,-51.81884765625,34.36279296875
2022-02-14 17:29:40.712179,734.08006,-0.527099609375,-0.515625,1.228759765625,103.57666015625,-27.28271484375,28.3203125
2022-02-14 17:29:40.712179,734.130712,-0.44775390625,-0.5848388671875,1.05078125,79.833984375,123.9013671875,-21.8505859375
2022-02-14 17:29:40.767184,734.148786,-0.458740234375,-0.769775390625,1.008544921875,46.5087890625,147.5830078125,-66.650390625
2022-02-14 17:29:40.767184,734.18328,-0.613037109375,-0.9056396484375,0.8302001953125,71.35009765625,202.81982421875,-35.15625
2022-02-14 17:29:40.768182,734.190245,-0.61181640625,-0.8463134765625,0.697509765625,86.669921875,221.435546875,-0.8544921875
2022-02-14 17:29:40.826179,734.207275,-0.5572509765625,-0.61181640625,0.498291015625,117.00439453125,235.3515625,53.64990234375
2022-02-14 17:29:40.827180,734.241008,-0.2353515625,-0.197265625,0.4508056640625,69.51904296875,229.8583984375,54.443359375
2022-02-14 17:29:40.828180,734.249615,-0.16796875,-0.1513671875,0.4593505859375,39.24560546875,230.77392578125,26.91650390625
2022-02-14 17:29:40.886181,734.271713,-0.0791015625,-0.235107421875,0.388671875,7.32421875,236.572265625,-44.73876953125
2022-02-14 17:29:40.887181,734.301036,-0.15234375,-0.5789794921875,0.3697509765625,20.20263671875,220.458984375,-111.328125
2022-02-14 17:29:40.888181,734.309056,-0.1053466796875,-0.6124267578125,0.3858642578125,25.81787109375,215.4541015625,-116.02783203125
2022-02-14 17:29:40.946181,734.331166,-0.0538330078125,-0.646728515625,0.34814453125,30.2734375,216.30859375,-125.30517578125
2022-02-14 17:29:40.947182,734.361033,0.0439453125,-0.7939453125,0.103759765625,-12.87841796875,217.46826171875,-162.109375
2022-02-14 17:29:40.948181,734.36851,0.0469970703125,-0.864990234375,0.0445556640625,-19.53125,207.82470703125,-168.701171875
2022-02-14 17:29:41.006210,734.385536,-0.409912109375,-3.99951171875,-0.9776611328125,65.91796875,163.26904296875,-0.79345703125
2022-02-14 17:29:41.013180,734.428156,0.44482421875,0.026611328125,0.287109375,-25.7568359375,58.10546875,15.68603515625
2022-02-14 17:29:41.066179,734.44527,0.420654296875,-0.4176025390625,0.16552734375,-111.75537109375,65.85693359375,-105.224609375
2022-02-14 17:29:41.067180,734.480041,0.14990234375,-1.3076171875,0.24609375,-146.66748046875,32.5927734375,-292.05322265625
2022-02-14 17:29:41.069179,734.487503,0.11376953125,-1.5399169921875,0.3480224609375,-176.69677734375,19.47021484375,-215.33203125
2022-02-14 17:29:41.126180,734.504533,0.0062255859375,-1.8768310546875,0.608642578125,-149.35302734375,-9.58251953125,-160.94970703125
2022-02-14 17:29:41.127181,734.539242,-0.0665283203125,-1.7919921875,0.583740234375,-27.587890625,11.1083984375,103.33251953125
2022-02-14 17:29:41.128181,734.546779,-0.051513671875,-1.571533203125,0.3829345703125,8.056640625,13.671875,164.36767578125
2022-02-14 17:29:41.186181,734.563774,-0.046630859375,-1.207275390625,0.15576171875,22.88818359375,-0.54931640625,238.037109375
2022-02-14 17:29:41.187181,734.602027,0.00146484375,-0.4215087890625,0.16552734375,51.1474609375,-96.00830078125,294.86083984375
2022-02-14 17:29:41.188181,734.607888,0.027099609375,-0.27099609375,0.2581787109375,52.79541015625,-120.78857421875,285.70556640625
2022-02-14 17:29:41.247180,734.62333,0.1029052734375,-0.1021728515625,0.4210205078125,45.10498046875,-152.2216796875,242.24853515625
2022-02-14 17:29:41.247180,734.663255,0.112548828125,-0.2236328125,0.4273681640625,0.18310546875,-133.97216796875,85.14404296875
2022-02-14 17:29:41.251181,734.678976,0.0980224609375,-0.418212890625,0.39697265625,-14.0380859375,-138.97705078125,67.9931640625
2022-02-14 17:29:41.306178,734.691575,0.0111083984375,-0.6016845703125,0.5013427734375,-19.8974609375,-164.794921875,51.1474609375
2022-02-14 17:29:41.307195,734.721015,-0.142822265625,-0.596435546875,0.84423828125,-7.6904296875,-202.45361328125,76.35498046875
2022-02-14 17:29:41.313179,734.726338,-0.1881103515625,-0.5341796875,0.959228515625,0.67138671875,-205.4443359375,90.2099609375
2022-02-14 17:29:41.366180,734.74258,-0.2401123046875,-0.366943359375,1.095947265625,30.2734375,-194.9462890625,116.5771484375
2022-02-14 17:29:41.368180,734.77923,-0.2303466796875,0.07373046875,1.130859375,64.63623046875,-150.45166015625,126.0986328125
2022-02-14 17:29:41.368180,734.785148,-0.194580078125,0.1607666015625,1.1544189453125,70.61767578125,-138.85498046875,108.154296875
2022-02-14 17:29:41.426181,734.801702,-0.156005859375,0.2392578125,1.21923828125,69.3359375,-99.609375,36.9873046875
2022-02-14 17:29:41.427180,734.839491,-0.236572265625,0.08740234375,1.203857421875,58.837890625,-2.25830078125,-112.79296875
2022-02-14 17:29:41.429181,734.844884,-0.22265625,-0.033447265625,1.14990234375,45.47119140625,21.8505859375,-148.25439453125
2022-02-14 17:29:41.486183,734.861019,-0.2830810546875,-0.3402099609375,0.970458984375,31.06689453125,62.5,-214.78271484375
2022-02-14 17:29:41.487184,734.899488,-0.2818603515625,-0.9693603515625,0.618896484375,30.94482421875,102.60009765625,-272.27783203125
2022-02-14 17:29:41.488180,734.905848,-0.2913818359375,-1.1534423828125,0.507568359375,17.578125,109.19189453125,-275.20751953125
2022-02-14 17:29:41.546180,734.920506,-0.2943115234375,-1.4755859375,0.3541259765625,10.009765625,96.923828125,-248.96240234375
2022-02-14 17:29:41.547191,734.96201,-0.1923828125,-1.78173828125,0.2706298828125,0.3662109375,15.44189453125,-54.01611328125
2022-02-14 17:29:41.549190,734.971707,-0.2022705078125,-1.7939453125,0.24853515625,-5.615234375,3.5400390625,-16.29638671875
2022-02-14 17:29:41.614180,734.989776,-0.1697998046875,-1.7589111328125,0.2705078125,-23.0712890625,-18.5546875,51.1474609375
2022-02-14 17:29:41.615180,735.0357,-0.328125,-1.3544921875,0.3775634765625,-13.5498046875,-85.8154296875,189.208984375
2022-02-14 17:29:41.666180,735.048302,-0.563720703125,-1.076904296875,0.572509765625,0.06103515625,-112.4267578125,237.24365234375
2022-02-14 17:29:41.668181,735.079215,-0.8314208984375,-0.276123046875,0.8895263671875,41.50390625,-132.2021484375,338.92822265625
2022-02-14 17:29:41.674214,735.082284,-0.810546875,0.0260009765625,0.956298828125,54.62646484375,-133.9111328125,362.12158203125
2022-02-14 17:29:41.727179,735.099231,-0.701416015625,0.532470703125,1.026123046875,73.66943359375,-142.76123046875,389.6484375
2022-02-14 17:29:41.727179,735.139424,-0.1800537109375,0.93896484375,1.2510986328125,47.607421875,-2.50244140625,-5.37109375
2022-02-14 17:29:41.729181,735.154954,-0.179931640625,0.710693359375,1.1204833984375,20.81298828125,37.90283203125,-101.318359375
2022-02-14 17:29:41.786183,735.167043,-0.2723388671875,0.1959228515625,0.8414306640625,-34.60693359375,104.67529296875,-265.19775390625
2022-02-14 17:29:41.787181,735.199505,-0.5516357421875,-0.8475341796875,0.4462890625,-71.8994140625,146.3623046875,-542.41943359375
2022-02-14 17:29:41.788181,735.214159,-0.5916748046875,-1.244140625,0.2940673828125,-47.54638671875,147.216796875,-615.90576171875
2022-02-14 17:29:41.850181,735.226775,-0.6591796875,-1.8831787109375,0.346923828125,-97.59521484375,113.4033203125,-451.2939453125
2022-02-14 17:29:41.850181,735.268704,-0.5924072265625,-2.490234375,0.387451171875,-14.46533203125,15.07568359375,-62.744140625
2022-02-14 17:29:41.918183,735.286773,-0.64453125,-1.9114990234375,0.4400634765625,65.0634765625,-33.75244140625,148.01025390625
2022-02-14 17:29:41.918183,735.328417,-0.6806640625,-0.09814453125,0.805419921875,116.27197265625,-128.7841796875,410.70556640625
2022-02-14 17:29:41.967195,735.345531,-0.445556640625,0.321533203125,0.9393310546875,72.93701171875,-125.06103515625,395.93505859375
2022-02-14 17:29:41.967195,735.380028,0.0225830078125,0.4542236328125,0.847412109375,44.3115234375,-14.70947265625,79.1015625
2022-02-14 17:29:41.971184,735.388056,0.0279541015625,0.301513671875,0.7379150390625,15.44189453125,10.55908203125,-3.41796875
2022-02-14 17:29:42.026179,735.404667,-0.0699462890625,-0.2333984375,0.5987548828125,-47.54638671875,49.13330078125,-141.90673828125
2022-02-14 17:29:42.027180,735.440027,-0.3095703125,-1.05126953125,0.4561767578125,3.84521484375,49.62158203125,-283.203125
2022-02-14 17:29:42.029180,735.447513,-0.29833984375,-1.22998046875,0.4423828125,-26.91650390625,36.56005859375,-206.97021484375
2022-02-14 17:29:42.087179,735.46454,-0.3048095703125,-1.4371337890625,0.4130859375,-9.1552734375,23.4375,-146.728515625
2022-02-14 17:29:42.088180,735.503001,-0.28564453125,-1.2752685546875,0.4144287109375,42.17529296875,-16.4794921875,17.7001953125
2022-02-14 17:29:42.089181,735.506624,-0.2750244140625,-1.131103515625,0.45751953125,57.7392578125,-28.076171875,47.119140625
2022-02-14 17:29:42.146179,735.523502,-0.260009765625,-0.8603515625,0.5477294921875,67.32177734375,-40.10009765625,79.58984375
2022-02-14 17:29:42.147180,735.557432,-0.2144775390625,-0.5828857421875,0.626220703125,41.50390625,-21.97265625,58.9599609375
2022-02-14 17:29:42.148180,735.566469,-0.230712890625,-0.571533203125,0.6207275390625,33.203125,-13.916015625,43.45703125
2022-02-14 17:29:42.206179,735.60026,-0.22998046875,-0.676025390625,0.5118408203125,10.07080078125,14.46533203125,-9.09423828125
2022-02-14 17:29:42.208180,735.620049,-0.222900390625,-0.775390625,0.423583984375,7.99560546875,18.798828125,-22.5830078125
2022-02-14 17:29:42.208180,735.625885,-0.2232666015625,-0.8192138671875,0.3992919921875,9.3994140625,17.4560546875,-25.32958984375
2022-02-14 17:29:42.266180,735.642821,-0.2247314453125,-0.8787841796875,0.3768310546875,14.46533203125,11.90185546875,-24.47509765625
2022-02-14 17:29:42.267181,735.679216,-0.2171630859375,-0.9161376953125,0.3614501953125,19.6533203125,-2.13623046875,-11.16943359375
2022-02-14 17:29:42.269179,735.685126,-0.2244873046875,-0.91357421875,0.3765869140625,20.08056640625,-5.31005859375,-8.056640625
2022-02-14 17:29:42.327179,735.702277,-0.2247314453125,-0.896728515625,0.3624267578125,22.8271484375,-6.7138671875,-2.685546875
2022-02-14 17:29:42.328179,735.739481,-0.2022705078125,-0.88427734375,0.4383544921875,8.056640625,-6.65283203125,0.48828125
2022-02-14 17:29:42.329179,735.744814,-0.212646484375,-0.877197265625,0.4814453125,16.2353515625,-11.1083984375,0.06103515625
2022-02-14 17:29:42.386181,735.761297,-0.215576171875,-0.858154296875,0.5146484375,14.16015625,-4.2724609375,-1.8310546875
2022-02-14 17:29:42.387181,735.799477,-0.19384765625,-0.8475341796875,0.423583984375,9.033203125,14.09912109375,-8.48388671875
2022-02-14 17:29:42.388181,735.804811,-0.1976318359375,-0.8792724609375,0.405029296875,5.2490234375,16.17431640625,-11.8408203125
2022-02-14 17:29:42.448182,735.826129,-0.24853515625,-0.9246826171875,0.328857421875,-1.953125,18.37158203125,-14.404296875
2022-02-14 17:29:42.448182,735.86102,-0.267578125,-0.900390625,0.4249267578125,12.3291015625,-3.11279296875,8.1787109375
2022-02-14 17:29:42.448182,735.876703,-0.258056640625,-0.8319091796875,0.397705078125,17.88330078125,-0.54931640625,11.3525390625
2022-02-14 17:29:42.506179,735.888762,-0.240478515625,-0.7574462890625,0.374755859375,23.49853515625,1.220703125,9.46044921875
2022-02-14 17:29:42.514180,735.92399,-0.2340087890625,-0.82666015625,0.40673828125,9.09423828125,-1.708984375,-15.31982421875
2022-02-14 17:29:42.514180,735.931507,-0.26171875,-0.8504638671875,0.411376953125,3.41796875,0.3662109375,-19.10400390625
2022-02-14 17:29:42.567179,735.948523,-0.224853515625,-0.8807373046875,0.45703125,15.9912109375,3.11279296875,13.36669921875
2022-02-14 17:29:42.567179,735.979498,-0.209228515625,-0.921142578125,0.353759765625,18.6767578125,20.20263671875,6.40869140625
2022-02-14 17:29:42.569180,735.98256,-0.2186279296875,-0.909423828125,0.3173828125,20.69091796875,20.01953125,7.568359375
2022-02-14 17:29:42.681514,735.999508,-0.2037353515625,-0.922607421875,0.283447265625,19.6533203125,16.845703125,8.9111328125
2022-02-14 17:29:42.687692,736.041011,-0.2242431640625,-0.8800048828125,0.3544921875,15.625,3.72314453125,11.474609375
2022-02-14 17:29:42.688692,736.050171,-0.21630859375,-0.883056640625,0.349365234375,17.9443359375,3.96728515625,11.962890625
2022-02-14 17:29:42.745722,736.067509,-0.224365234375,-0.8760986328125,0.368408203125,12.3291015625,4.45556640625,13.12255859375
2022-02-14 17:29:42.747747,736.162236,-0.176025390625,-0.925537109375,0.271484375,40.58837890625,9.09423828125,23.74267578125
2022-02-14 17:29:42.748777,736.169237,-0.1866455078125,-0.9295654296875,0.2698974609375,41.015625,9.33837890625,22.8271484375
2022-02-14 17:29:42.806247,736.186268,-0.1961669921875,-0.9334716796875,0.277099609375,44.677734375,9.27734375,22.4609375
2022-02-14 17:29:42.809248,736.220019,-0.1920166015625,-0.9345703125,0.1954345703125,49.1943359375,11.474609375,21.728515625
2022-02-14 17:29:42.809248,736.228587,-0.021240234375,-0.9317626953125,0.1966552734375,46.56982421875,12.39013671875,20.3857421875
2022-02-14 17:29:42.866247,736.245683,-0.149658203125,-0.95458984375,0.184326171875,48.15673828125,20.20263671875,30.8837890625
2022-02-14 17:29:42.867248,736.280016,-0.1331787109375,-0.938720703125,0.1463623046875,43.39599609375,14.46533203125,52.42919921875
2022-02-14 17:29:42.868249,736.288043,-0.10009765625,-0.9322509765625,0.13427734375,38.330078125,12.8173828125,60.1806640625
2022-02-14 17:29:42.926247,736.310163,-0.099365234375,-1.016357421875,0.1021728515625,69.88525390625,9.33837890625,39.73388671875
2022-02-14 17:29:42.984304,736.340014,-0.0946044921875,-0.9766845703125,0.1611328125,30.94482421875,-2.685546875,14.0380859375
2022-02-14 17:29:43.045835,736.347499,-0.0965576171875,-0.9847412109375,0.1649169921875,36.31591796875,-2.01416015625,11.5966796875
2022-02-14 17:29:43.046837,736.364528,-0.08447265625,-0.988525390625,0.0660400390625,34.912109375,3.23486328125,7.99560546875
2022-02-14 17:29:43.048836,736.40299,-0.0689697265625,-0.9852294921875,0.0626220703125,24.2919921875,3.84521484375,5.31005859375
2022-02-14 17:29:43.049836,736.415272,-0.068115234375,-0.9815673828125,0.0635986328125,22.76611328125,4.0283203125,3.84521484375
2022-02-14 17:29:43.105835,736.467963,-0.0338134765625,-0.971923828125,0.0377197265625,46.5087890625,6.7138671875,7.38525390625
2022-02-14 17:29:43.107836,736.521998,-0.0244140625,-0.9991455078125,0.0775146484375,16.05224609375,-0.8544921875,23.8037109375
2022-02-14 17:29:43.108837,736.527321,-0.0435791015625,-1.010009765625,-0.08251953125,2.3193359375,0.244140625,4.08935546875
2022-02-14 17:29:43.165836,736.543044,-0.045166015625,-0.9835205078125,-0.0201416015625,8.4228515625,5.55419921875,-1.0986328125
2022-02-14 17:29:43.167836,736.582247,-0.04150390625,-0.989013671875,-0.0157470703125,-2.44140625,2.25830078125,2.685546875
2022-02-14 17:29:43.180835,736.58531,-0.04248046875,-0.98876953125,-0.014404296875,-1.3427734375,2.685546875,2.197265625
2022-02-14 17:29:43.225835,736.602428,-0.0400390625,-0.9898681640625,-0.037353515625,6.2255859375,3.7841796875,1.03759765625
2022-02-14 17:29:43.227836,736.642216,-0.038818359375,-0.99267578125,-0.0384521484375,1.708984375,2.62451171875,1.46484375
2022-02-14 17:29:43.228836,736.657963,-0.03955078125,-0.9886474609375,-0.0311279296875,1.28173828125,3.0517578125,1.15966796875
2022-02-14 17:29:43.285835,736.670563,-0.0384521484375,-0.98974609375,-0.0374755859375,2.01416015625,2.685546875,1.40380859375
2022-02-14 17:29:43.286836,736.700024,-0.0394287109375,-0.9893798828125,-0.035400390625,2.197265625,3.0517578125,1.46484375
2022-02-14 17:29:43.288836,736.705332,-0.0396728515625,-0.99169921875,-0.0369873046875,2.685546875,2.9296875,1.3427734375
2022-02-14 17:29:43.345834,736.721306,-0.038330078125,-0.9893798828125,-0.0386962890625,2.0751953125,2.74658203125,1.40380859375
2022-02-14 17:29:43.346836,736.762016,-0.0379638671875,-0.9913330078125,-0.039306640625,1.953125,2.9296875,1.28173828125
2022-02-14 17:29:43.348837,736.777161,-0.0382080078125,-0.9908447265625,-0.0404052734375,1.8310546875,2.86865234375,1.40380859375
2022-02-14 17:29:43.406836,736.789756,-0.03857421875,-0.99267578125,-0.0445556640625,2.01416015625,2.5634765625,1.15966796875
2022-02-14 17:29:43.406836,736.820021,-0.0389404296875,-0.9881591796875,-0.043212890625,1.953125,2.8076171875,1.28173828125
2022-02-14 17:29:43.408836,736.823112,-0.037841796875,-0.9893798828125,-0.042724609375,1.953125,3.0517578125,1.5869140625
2022-02-14 17:29:43.465836,736.840196,-0.037841796875,-0.9910888671875,-0.0428466796875,1.708984375,2.74658203125,1.28173828125
2022-02-14 17:29:43.466836,736.879487,-0.037841796875,-0.9892578125,-0.04296875,1.708984375,3.0517578125,1.40380859375
2022-02-14 17:29:43.468837,736.88255,-0.0379638671875,-0.9896240234375,-0.04296875,1.64794921875,2.9296875,1.46484375
2022-02-14 17:29:43.526835,736.899496,-0.03857421875,-0.9891357421875,-0.0452880859375,1.5869140625,2.74658203125,1.220703125
2022-02-14 17:29:43.526835,736.941,-0.0372314453125,-0.990234375,-0.0460205078125,0.8544921875,2.86865234375,1.40380859375
2022-02-14 17:29:43.528836,736.950701,-0.0367431640625,-0.9898681640625,-0.0467529296875,0.8544921875,2.86865234375,1.220703125
2022-02-14 17:29:43.585835,736.968772,-0.03662109375,-0.98974609375,-0.0443115234375,0.732421875,2.38037109375,1.220703125
2022-02-14 17:29:43.586836,737.003968,-0.0367431640625,-0.9901123046875,-0.0462646484375,0.54931640625,3.0517578125,1.28173828125
2022-02-14 17:29:43.597835,737.00987,-0.036865234375,-0.9901123046875,-0.0458984375,0.79345703125,2.74658203125,1.28173828125
2022-02-14 17:29:43.706839,737.026971,-0.0360107421875,-0.9893798828125,-0.0469970703125,0.6103515625,2.685546875,1.15966796875
2022-02-14 17:29:43.707847,737.059475,-0.0364990234375,-0.9906005859375,-0.046875,0.6103515625,2.74658203125,1.28173828125
2022-02-14 17:29:43.708837,737.074688,-0.036376953125,-0.9901123046875,-0.0477294921875,0.48828125,2.74658203125,1.3427734375
2022-02-14 17:29:43.765836,737.086272,-0.0367431640625,-0.98974609375,-0.0477294921875,0.6103515625,2.74658203125,1.03759765625
2022-02-14 17:29:43.766837,737.180034,-0.0361328125,-0.9892578125,-0.04931640625,0.91552734375,2.9296875,1.15966796875
2022-02-14 17:29:43.768836,737.188572,-0.03662109375,-0.9896240234375,-0.0501708984375,0.79345703125,2.9296875,1.220703125
2022-02-14 17:29:43.825835,737.205433,-0.036865234375,-0.990966796875,-0.0491943359375,0.732421875,2.685546875,1.15966796875
2022-02-14 17:29:43.826836,737.240031,-0.03662109375,-0.990234375,-0.0501708984375,0.6103515625,2.99072265625,1.220703125
2022-02-14 17:29:43.828835,737.248052,-0.0367431640625,-0.9891357421875,-0.0506591796875,0.732421875,2.9296875,1.0986328125
2022-02-14 17:29:43.885836,737.264692,-0.0355224609375,-0.9896240234375,-0.0496826171875,0.91552734375,2.5634765625,0.9765625
2022-02-14 17:29:43.887835,737.300025,-0.036376953125,-0.9893798828125,-0.0506591796875,0.8544921875,2.9296875,1.220703125
2022-02-14 17:29:43.888836,737.307507,-0.036376953125,-0.9888916015625,-0.0501708984375,0.732421875,2.9296875,1.28173828125
2022-02-14 17:29:43.945868,737.324515,-0.036376953125,-0.989501953125,-0.0517578125,0.54931640625,2.74658203125,1.0986328125
2022-02-14 17:29:43.946838,737.362971,-0.03662109375,-0.9888916015625,-0.0526123046875,0.732421875,2.86865234375,1.0986328125
2022-02-14 17:29:43.948837,737.366577,-0.0374755859375,-0.9893798828125,-0.0506591796875,0.48828125,2.86865234375,1.220703125
2022-02-14 17:29:44.006836,737.384013,-0.0364990234375,-0.9913330078125,-0.051513671875,0.6103515625,2.86865234375,1.15966796875
2022-02-14 17:29:44.007839,737.419542,-0.0364990234375,-0.98974609375,-0.052001953125,0.6103515625,2.86865234375,1.28173828125
2022-02-14 17:29:44.008869,737.426501,-0.035400390625,-0.98974609375,-0.052490234375,0.48828125,2.86865234375,1.220703125
2022-02-14 17:29:44.066840,737.442988,-0.036376953125,-0.989990234375,-0.05224609375,0.48828125,2.685546875,1.15966796875
2022-02-14 17:29:44.067839,737.479489,-0.0362548828125,-0.9898681640625,-0.053955078125,0.8544921875,2.86865234375,1.220703125
2022-02-14 17:29:44.068837,737.485935,-0.0357666015625,-0.98974609375,-0.05322265625,0.732421875,2.8076171875,1.220703125
2022-02-14 17:29:44.125837,737.502457,-0.03564453125,-0.98974609375,-0.05322265625,0.48828125,2.8076171875,1.0986328125
2022-02-14 17:29:44.126836,737.539484,-0.0364990234375,-0.990234375,-0.0540771484375,0.732421875,2.9296875,1.220703125
2022-02-14 17:29:44.128836,737.545389,-0.0362548828125,-0.989990234375,-0.054443359375,0.67138671875,2.74658203125,1.0986328125
2022-02-14 17:29:44.185835,737.561973,-0.0357666015625,-0.9898681640625,-0.0540771484375,0.67138671875,2.44140625,0.79345703125
2022-02-14 17:29:44.186836,737.599482,-0.036376953125,-0.9898681640625,-0.0545654296875,0.6103515625,2.9296875,1.28173828125
2022-02-14 17:29:44.188836,737.604817,-0.03759765625,-0.9918212890625,-0.0552978515625,0.732421875,2.86865234375,1.220703125
2022-02-14 17:29:44.246835,737.621387,-0.0361328125,-0.989501953125,-0.0548095703125,0.48828125,2.685546875,1.03759765625
2022-02-14 17:29:44.301952,737.662004,-0.0357666015625,-0.9901123046875,-0.0556640625,0.54931640625,2.8076171875,1.0986328125
2022-02-14 17:29:44.307742,737.677692,-0.036865234375,-0.9891357421875,-0.0552978515625,0.42724609375,2.8076171875,1.220703125
2022-02-14 17:29:44.308742,737.689745,-0.036376953125,-0.9893798828125,-0.055908203125,0.54931640625,2.74658203125,1.03759765625
2022-02-14 17:29:44.365740,737.726693,-0.035888671875,-0.989501953125,-0.0562744140625,0.42724609375,2.86865234375,1.220703125
2022-02-14 17:29:44.366741,737.780429,-0.0352783203125,-0.989990234375,-0.056884765625,0.54931640625,2.8076171875,1.15966796875
2022-02-14 17:29:44.368741,737.795956,-0.03466796875,-0.9903564453125,-0.056640625,0.42724609375,2.8076171875,1.03759765625
2022-02-14 17:29:44.425740,737.808184,-0.0355224609375,-0.989501953125,-0.0570068359375,0.42724609375,2.685546875,1.15966796875
2022-02-14 17:29:44.427741,737.841465,-0.0357666015625,-0.989990234375,-0.0579833984375,0.18310546875,2.8076171875,1.220703125
2022-02-14 17:29:44.428741,737.850657,-0.0352783203125,-0.9898681640625,-0.0579833984375,0.3662109375,2.9296875,1.28173828125
2022-02-14 17:29:44.486741,737.868754,-0.0347900390625,-0.989501953125,-0.058349609375,0.30517578125,2.50244140625,0.91552734375
2022-02-14 17:29:44.486741,737.903983,-0.03515625,-0.98974609375,-0.0592041015625,0.42724609375,2.8076171875,1.0986328125
2022-02-14 17:29:44.497741,737.9104,-0.0350341796875,-0.9903564453125,-0.0577392578125,0.42724609375,2.74658203125,1.220703125
2022-02-14 17:29:44.545772,737.927504,-0.03466796875,-0.9898681640625,-0.05908203125,0.54931640625,2.74658203125,0.9765625
2022-02-14 17:29:44.547741,737.961989,-0.03515625,-0.989990234375,-0.058349609375,0.3662109375,2.74658203125,1.0986328125
2022-02-14 17:29:44.548741,737.970039,-0.0352783203125,-0.9901123046875,-0.0576171875,0.30517578125,2.74658203125,1.03759765625
2022-02-14 17:29:44.605740,737.986647,-0.0355224609375,-0.9901123046875,-0.05859375,0.42724609375,2.685546875,0.9765625
2022-02-14 17:29:44.607741,738.021984,-0.0352783203125,-0.9901123046875,-0.05908203125,0.30517578125,2.8076171875,1.220703125
2022-02-14 17:29:44.608741,738.029494,-0.035888671875,-0.9903564453125,-0.05810546875,0.30517578125,2.74658203125,1.0986328125
2022-02-14 17:29:44.665740,738.045985,-0.0347900390625,-0.99072265625,-0.05908203125,0.48828125,2.685546875,1.03759765625
2022-02-14 17:29:44.667741,738.079506,-0.0355224609375,-0.989501953125,-0.0594482421875,0.244140625,2.86865234375,1.3427734375
2022-02-14 17:29:44.668741,738.088663,-0.034912109375,-0.9892578125,-0.058837890625,0.30517578125,2.8076171875,1.15966796875
2022-02-14 17:29:44.725739,738.10676,-0.03466796875,-0.990478515625,-0.059326171875,0.3662109375,2.685546875,0.9765625
2022-02-14 17:29:44.726741,738.139486,-0.0347900390625,-0.98876953125,-0.060546875,0.3662109375,2.9296875,1.220703125
2022-02-14 17:29:44.728741,738.148118,-0.03564453125,-0.9891357421875,-0.060546875,0.3662109375,2.74658203125,0.91552734375
2022-02-14 17:29:44.785741,738.169691,-0.033935546875,-0.989990234375,-0.0596923828125,0.3662109375,2.62451171875,1.03759765625
2022-02-14 17:29:44.787741,738.203238,-0.03515625,-0.9893798828125,-0.060546875,0.30517578125,2.99072265625,1.28173828125
2022-02-14 17:29:44.788741,738.208554,-0.03564453125,-0.989013671875,-0.0606689453125,0.18310546875,2.86865234375,1.0986328125
2022-02-14 17:29:44.846741,738.224823,-0.034912109375,-0.989501953125,-0.0611572265625,0.244140625,2.74658203125,0.9765625
2022-02-14 17:29:44.846741,738.259529,-0.034423828125,-0.9886474609375,-0.060546875,0.42724609375,2.9296875,1.0986328125
2022-02-14 17:29:44.848741,738.267032,-0.0340576171875,-0.98974609375,-0.0592041015625,0.18310546875,2.74658203125,1.15966796875
2022-02-14 17:29:44.905740,738.283948,-0.033935546875,-0.99072265625,-0.0601806640625,0.30517578125,2.5634765625,0.91552734375
2022-02-14 17:29:44.907741,738.321462,-0.0340576171875,-0.9903564453125,-0.0609130859375,0.244140625,2.62451171875,1.15966796875
2022-02-14 17:29:44.917740,738.327804,-0.0341796875,-0.9901123046875,-0.0614013671875,0.244140625,2.685546875,1.03759765625
2022-02-14 17:29:44.965740,738.343563,-0.0340576171875,-0.989990234375,-0.060302734375,0.1220703125,2.74658203125,1.0986328125
2022-02-14 17:29:44.967744,738.383228,-0.0347900390625,-0.9908447265625,-0.0611572265625,0.1220703125,2.9296875,1.15966796875
2022-02-14 17:29:44.968742,738.398948,-0.034912109375,-0.989990234375,-0.06201171875,0.18310546875,2.8076171875,1.03759765625
2022-02-14 17:29:45.025740,738.411548,-0.0350341796875,-0.9896240234375,-0.0615234375,0.244140625,2.62451171875,1.0986328125
2022-02-14 17:29:45.027740,738.439417,-0.03515625,-0.990478515625,-0.06201171875,0.18310546875,2.8076171875,1.0986328125
2022-02-14 17:29:45.028741,738.445658,-0.0352783203125,-0.9901123046875,-0.0621337890625,0.244140625,2.74658203125,1.0986328125
2022-02-14 17:29:45.085740,738.462701,-0.034423828125,-0.9896240234375,-0.061767578125,0.30517578125,2.74658203125,0.8544921875
2022-02-14 17:29:45.087741,738.501994,-0.033935546875,-0.989990234375,-0.0618896484375,0.244140625,2.9296875,1.0986328125
2022-02-14 17:29:45.088741,738.505056,-0.0340576171875,-0.990478515625,-0.063720703125,0.3662109375,2.86865234375,1.28173828125
2022-02-14 17:29:45.145739,738.521926,-0.0343017578125,-0.9898681640625,-0.061279296875,0.30517578125,2.9296875,0.91552734375
2022-02-14 17:29:45.147742,738.563253,-0.034423828125,-0.989501953125,-0.0621337890625,0.3662109375,2.86865234375,1.15966796875
2022-02-14 17:29:45.148741,738.577863,-0.034912109375,-0.9893798828125,-0.0615234375,0.244140625,2.9296875,1.15966796875
2022-02-14 17:29:45.205741,738.590997,-0.034423828125,-0.9893798828125,-0.0626220703125,0.18310546875,2.685546875,1.220703125
2022-02-14 17:29:45.207740,738.620982,-0.0340576171875,-0.9893798828125,-0.0633544921875,0.3662109375,2.8076171875,1.15966796875
2022-02-14 17:29:45.208741,738.624072,-0.0335693359375,-0.9896240234375,-0.0634765625,0.3662109375,2.8076171875,1.28173828125
2022-02-14 17:29:45.265740,738.640651,-0.034423828125,-0.9896240234375,-0.0625,0.18310546875,2.74658203125,0.9765625
2022-02-14 17:29:45.266741,738.682236,-0.033935546875,-0.9898681640625,-0.062744140625,0.18310546875,2.8076171875,1.03759765625
2022-02-14 17:29:45.268741,738.69685,-0.0341796875,-0.98974609375,-0.0635986328125,0.06103515625,2.74658203125,1.0986328125
2022-02-14 17:29:45.325740,738.709472,-0.03369140625,-0.9892578125,-0.0625,0.18310546875,2.5634765625,1.03759765625
2022-02-14 17:29:45.327741,738.739565,-0.034912109375,-0.9891357421875,-0.0626220703125,0.30517578125,2.8076171875,1.0986328125
2022-02-14 17:29:45.328741,738.74269,-0.0343017578125,-0.9893798828125,-0.063720703125,0.42724609375,2.8076171875,1.0986328125
2022-02-14 17:29:45.386741,738.759467,-0.0338134765625,-0.9898681640625,-0.063720703125,0.244140625,2.5634765625,0.79345703125
2022-02-14 17:29:45.445740,738.801001,-0.035400390625,-0.9906005859375,-0.0643310546875,0.18310546875,2.9296875,1.03759765625
2022-02-14 17:29:45.447741,738.810665,-0.0338134765625,-0.989990234375,-0.0643310546875,0.30517578125,2.62451171875,0.79345703125
2022-02-14 17:29:45.451740,738.82874,-0.0341796875,-0.98974609375,-0.0638427734375,0.18310546875,2.74658203125,1.0986328125
2022-02-14 17:29:45.507741,738.872883,-0.0345458984375,-0.98974609375,-0.0650634765625,0.244140625,2.99072265625,1.0986328125
2022-02-14 17:29:45.507741,738.922225,-0.0350341796875,-0.989990234375,-0.0653076171875,0.30517578125,2.86865234375,1.0986328125
2022-02-14 17:29:45.508743,738.929736,-0.03515625,-0.9903564453125,-0.0660400390625,0.30517578125,2.8076171875,1.0986328125
2022-02-14 17:29:45.565741,738.946733,-0.0340576171875,-0.9891357421875,-0.0650634765625,0.1220703125,2.685546875,1.0986328125
2022-02-14 17:29:45.567741,738.980007,-0.0345458984375,-0.9901123046875,-0.064697265625,0.30517578125,2.74658203125,1.40380859375
2022-02-14 17:29:45.568741,738.989122,-0.0340576171875,-0.9898681640625,-0.0657958984375,0.18310546875,2.8076171875,1.220703125
2022-02-14 17:29:45.626742,739.005959,-0.0341796875,-0.9888916015625,-0.06396484375,0.244140625,2.685546875,1.0986328125
2022-02-14 17:29:45.627741,739.043962,-0.034912109375,-0.98974609375,-0.0638427734375,0.30517578125,2.8076171875,1.15966796875
2022-02-14 17:29:45.629742,739.049869,-0.03466796875,-0.9888916015625,-0.0657958984375,0.30517578125,3.0517578125,1.28173828125
2022-02-14 17:29:45.685740,739.065551,-0.0343017578125,-0.989501953125,-0.0650634765625,0.1220703125,2.8076171875,0.91552734375
2022-02-14 17:29:45.686741,739.099446,-0.034912109375,-0.9888916015625,-0.0648193359375,0.06103515625,2.74658203125,1.0986328125
2022-02-14 17:29:45.688741,739.108047,-0.0343017578125,-0.9892578125,-0.06396484375,0.18310546875,2.685546875,1.15966796875
2022-02-14 17:29:45.745741,739.129677,-0.032958984375,-0.9893798828125,-0.064208984375,0.06103515625,2.86865234375,1.03759765625
2022-02-14 17:29:45.746741,739.163222,-0.034423828125,-0.9892578125,-0.0650634765625,0.1220703125,2.8076171875,1.03759765625
2022-02-14 17:29:45.749741,739.168539,-0.0335693359375,-0.989990234375,-0.06494140625,0.18310546875,2.8076171875,1.0986328125
2022-02-14 17:29:45.805739,739.184278,-0.0335693359375,-0.98974609375,-0.063720703125,0.18310546875,2.62451171875,1.0986328125
2022-02-14 17:29:45.807741,739.219509,-0.0347900390625,-0.989990234375,-0.064453125,0.30517578125,2.62451171875,1.03759765625
2022-02-14 17:29:45.808741,739.227017,-0.034912109375,-0.990478515625,-0.0653076171875,0.18310546875,2.86865234375,1.15966796875
2022-02-14 17:29:45.865740,739.243963,-0.0335693359375,-0.989990234375,-0.0650634765625,0.0,2.5634765625,1.03759765625
2022-02-14 17:29:45.867741,739.281446,-0.034423828125,-0.9898681640625,-0.065673828125,0.244140625,2.9296875,1.15966796875
2022-02-14 17:29:45.869740,739.286778,-0.0340576171875,-0.9906005859375,-0.0655517578125,0.244140625,2.86865234375,1.03759765625
2022-02-14 17:29:45.925741,739.308126,-0.032958984375,-0.9912109375,-0.065673828125,0.244140625,2.5634765625,1.03759765625
2022-02-14 17:29:45.983796,739.342971,-0.0343017578125,-0.9896240234375,-0.0655517578125,0.06103515625,2.685546875,1.220703125
2022-02-14 17:29:45.983796,739.358679,-0.0338134765625,-0.9915771484375,-0.0655517578125,0.18310546875,2.62451171875,1.0986328125
2022-02-14 17:29:45.988860,739.371302,-0.0347900390625,-0.9898681640625,-0.065673828125,0.06103515625,2.62451171875,0.9765625
2022-02-14 17:29:45.989860,739.400953,-0.033935546875,-0.9901123046875,-0.0655517578125,0.244140625,2.8076171875,1.0986328125
2022-02-14 17:29:46.045859,739.413555,-0.033447265625,-0.9893798828125,-0.0660400390625,0.244140625,2.685546875,0.9765625
2022-02-14 17:29:46.046860,739.460467,-0.0343017578125,-0.9892578125,-0.0653076171875,0.06103515625,2.86865234375,1.0986328125
2022-02-14 17:29:46.048859,739.465794,-0.03369140625,-0.98974609375,-0.065673828125,-0.06103515625,2.74658203125,1.15966796875
2022-02-14 17:29:46.105858,739.481552,-0.03515625,-0.98974609375,-0.0655517578125,0.06103515625,2.685546875,1.03759765625
2022-02-14 17:29:46.106860,739.521975,-0.0347900390625,-0.9893798828125,-0.0654296875,0.1220703125,2.86865234375,1.220703125
2022-02-14 17:29:46.108860,739.53769,-0.03369140625,-0.9896240234375,-0.0660400390625,0.0,2.74658203125,1.0986328125
2022-02-14 17:29:46.165859,739.549743,-0.0347900390625,-0.9892578125,-0.0653076171875,0.06103515625,2.5634765625,1.15966796875
2022-02-14 17:29:46.166860,739.579524,-0.033203125,-0.9896240234375,-0.0662841796875,0.0,2.9296875,1.28173828125
2022-02-14 17:29:46.168859,739.584839,-0.034423828125,-0.9886474609375,-0.0657958984375,0.1220703125,2.8076171875,1.0986328125
2022-02-14 17:29:46.225860,739.600272,-0.0330810546875,-0.9888916015625,-0.065673828125,0.18310546875,2.685546875,1.0986328125
2022-02-14 17:29:46.227859,739.639448,-0.0343017578125,-0.9896240234375,-0.0660400390625,0.1220703125,2.74658203125,1.46484375
2022-02-14 17:29:46.228860,739.644016,-0.0340576171875,-0.98974609375,-0.0653076171875,0.06103515625,2.8076171875,1.220703125
2022-02-14 17:29:46.286860,739.65973,-0.0335693359375,-0.9898681640625,-0.0650634765625,0.3662109375,2.62451171875,1.03759765625
2022-02-14 17:29:46.286981,739.700989,-0.033203125,-0.9908447265625,-0.0662841796875,0.3662109375,2.8076171875,1.0986328125
2022-02-14 17:29:46.288990,739.716136,-0.0335693359375,-0.9893798828125,-0.065185546875,0.244140625,2.62451171875,1.0986328125
2022-02-14 17:29:46.346020,739.728726,-0.03466796875,-0.9906005859375,-0.0657958984375,0.0,2.74658203125,1.220703125
2022-02-14 17:29:46.346991,739.76219,-0.0345458984375,-0.9896240234375,-0.0672607421875,0.3662109375,2.685546875,1.03759765625
2022-02-14 17:29:46.348989,739.770271,-0.0338134765625,-0.990234375,-0.0672607421875,0.1220703125,2.74658203125,1.15966796875
2022-02-14 17:29:46.406030,739.792378,-0.033447265625,-0.989990234375,-0.067626953125,0.06103515625,2.50244140625,0.9765625
2022-02-14 17:29:46.406999,739.821451,-0.03369140625,-0.990234375,-0.0670166015625,-0.06103515625,2.9296875,1.15966796875
2022-02-14 17:29:46.465991,739.830102,-0.034423828125,-0.9901123046875,-0.067138671875,0.0,2.685546875,1.15966796875
2022-02-14 17:29:46.466991,739.846936,-0.032958984375,-0.98974609375,-0.0677490234375,0.1220703125,2.685546875,1.0986328125
2022-02-14 17:29:46.468020,739.879994,-0.03466796875,-0.989990234375,-0.0672607421875,0.18310546875,2.86865234375,1.28173828125
2022-02-14 17:29:46.469989,739.889111,-0.033935546875,-0.989501953125,-0.0679931640625,0.244140625,2.8076171875,1.03759765625
2022-02-14 17:29:46.583115,739.910672,-0.0338134765625,-0.9891357421875,-0.0672607421875,0.0,2.62451171875,0.91552734375
2022-02-14 17:29:46.587476,739.939991,-0.0338134765625,-0.9898681640625,-0.066650390625,0.0,2.86865234375,1.28173828125
2022-02-14 17:29:46.588509,739.948561,-0.0335693359375,-0.9896240234375,-0.06640625,0.18310546875,2.74658203125,1.15966796875
2022-02-14 17:29:46.645475,739.965645,-0.0333251953125,-0.9892578125,-0.06640625,0.1220703125,2.50244140625,0.9765625
2022-02-14 17:29:46.647476,740.063242,-0.0330810546875,-0.9888916015625,-0.0670166015625,0.18310546875,2.86865234375,1.0986328125
2022-02-14 17:29:46.649479,740.068557,-0.0328369140625,-0.9898681640625,-0.0673828125,0.1220703125,2.8076171875,1.28173828125
2022-02-14 17:29:46.706477,740.084557,-0.033203125,-0.9893798828125,-0.0662841796875,0.06103515625,2.62451171875,1.0986328125
2022-02-14 17:29:46.708507,740.119523,-0.032958984375,-0.9892578125,-0.067138671875,0.30517578125,2.9296875,1.40380859375
2022-02-14 17:29:46.708507,740.12702,-0.0335693359375,-0.989990234375,-0.0672607421875,0.1220703125,2.86865234375,1.15966796875
2022-02-14 17:29:46.766476,740.149145,-0.0338134765625,-0.9906005859375,-0.0667724609375,0.0,2.5634765625,0.9765625
2022-02-14 17:29:46.767494,740.183204,-0.033447265625,-0.98974609375,-0.0677490234375,0.18310546875,2.8076171875,1.3427734375
2022-02-14 17:29:46.770476,740.18681,-0.0333251953125,-0.9898681640625,-0.0670166015625,0.18310546875,2.74658203125,1.220703125
2022-02-14 17:29:46.826477,740.203735,-0.034423828125,-0.991455078125,-0.0670166015625,0.1220703125,2.685546875,1.220703125
2022-02-14 17:29:46.827476,740.239493,-0.03369140625,-0.9903564453125,-0.06884765625,0.18310546875,2.8076171875,1.28173828125
2022-02-14 17:29:46.828479,740.24592,-0.0338134765625,-0.989990234375,-0.0684814453125,0.0,2.8076171875,1.220703125
2022-02-14 17:29:46.886477,740.26298,-0.0338134765625,-0.9898681640625,-0.068603515625,0.244140625,2.8076171875,1.03759765625
2022-02-14 17:29:46.887479,740.300428,-0.0335693359375,-0.989990234375,-0.0682373046875,0.0,3.11279296875,1.3427734375
2022-02-14 17:29:46.888478,740.306129,-0.033447265625,-0.98876953125,-0.0673828125,0.18310546875,2.9296875,1.15966796875
2022-02-14 17:29:46.946477,740.322517,-0.0328369140625,-0.989013671875,-0.067138671875,0.1220703125,2.74658203125,1.0986328125
2022-02-14 17:29:46.947483,740.359236,-0.03369140625,-0.988525390625,-0.0679931640625,0.244140625,2.8076171875,1.0986328125
2022-02-14 17:29:47.006476,740.365093,-0.03369140625,-0.9892578125,-0.0675048828125,0.06103515625,2.685546875,1.03759765625
2022-02-14 17:29:47.007475,740.38167,-0.040771484375,-1.0350341796875,-0.1522216796875,17.76123046875,4.0283203125,13.61083984375
2022-02-14 17:29:47.008506,740.418178,-0.0224609375,-0.9964599609375,-0.1102294921875,12.451171875,2.44140625,4.57763671875
2022-02-14 17:29:47.066479,740.433001,-0.025146484375,-0.9896240234375,-0.077880859375,-4.33349609375,3.47900390625,1.40380859375
2022-02-14 17:29:47.067477,740.482209,-0.0267333984375,-0.984375,-0.037841796875,1.03759765625,3.72314453125,3.35693359375
2022-02-14 17:29:47.068506,740.497389,-0.0218505859375,-0.9970703125,-0.1029052734375,7.4462890625,2.38037109375,3.5400390625
2022-02-14 17:29:47.126490,740.509988,-0.0316162109375,-0.9884033203125,-0.0458984375,-4.45556640625,2.50244140625,2.3193359375
2022-02-14 17:29:47.127475,740.539504,-0.0234375,-0.9912109375,-0.083740234375,1.46484375,3.0517578125,1.5869140625
2022-02-14 17:29:47.128511,740.544284,-0.0244140625,-0.9892578125,-0.0679931640625,-1.28173828125,2.99072265625,1.28173828125
2022-02-14 17:29:47.186479,740.559998,-0.0235595703125,-0.989501953125,-0.077880859375,1.77001953125,2.74658203125,1.15966796875
2022-02-14 17:29:47.187476,740.599437,-0.0377197265625,-0.984619140625,-0.06884765625,-0.67138671875,4.8828125,2.3193359375
2022-02-14 17:29:47.188500,740.6025,-0.011474609375,-0.99755859375,-0.01708984375,3.662109375,8.11767578125,3.23486328125
2022-02-14 17:29:47.246477,740.619733,-0.02490234375,-0.9884033203125,-0.0654296875,14.46533203125,4.8828125,3.23486328125
2022-02-14 17:29:47.247478,740.660444,-0.0283203125,-0.9615478515625,-0.0196533203125,8.23974609375,0.0,6.28662109375
2022-02-14 17:29:47.248479,740.675679,-0.01123046875,-0.9833984375,-0.094482421875,32.71484375,1.15966796875,8.544921875
2022-02-14 17:29:47.426477,740.68774,-0.0169677734375,-0.9830322265625,-0.094482421875,28.50341796875,1.46484375,11.41357421875
2022-02-14 17:29:47.426477,740.7222,-0.0032958984375,-0.992431640625,-0.1317138671875,33.87451171875,2.01416015625,13.18359375
2022-02-14 17:29:47.427477,740.730274,-0.0018310546875,-0.9952392578125,-0.16064453125,30.2734375,2.3193359375,11.8408203125
2022-02-14 17:29:47.429477,740.747128,-0.0001220703125,-1.0009765625,-0.1697998046875,11.04736328125,2.13623046875,7.080078125
2022-02-14 17:29:47.485506,740.790927,-0.13037109375,-0.992919921875,-0.1639404296875,-39.6728515625,5.67626953125,-8.4228515625
2022-02-14 17:29:47.487476,740.90396,-0.1961669921875,-0.8968505859375,-0.152587890625,-19.47021484375,12.451171875,-124.08447265625
2022-02-14 17:29:47.488506,740.909841,-0.1778564453125,-0.9847412109375,-0.0538330078125,-54.8095703125,12.39013671875,-69.091796875
2022-02-14 17:29:47.546477,740.92528,-0.2261962890625,-1.1591796875,-0.0030517578125,-57.0068359375,5.43212890625,-60.85205078125
2022-02-14 17:29:47.547479,740.960957,-0.216552734375,-1.255615234375,0.09765625,-37.41455078125,-5.18798828125,-21.3623046875
2022-02-14 17:29:47.549478,740.967925,-0.212646484375,-1.234619140625,0.0887451171875,-34.423828125,-3.173828125,-8.11767578125
2022-02-14 17:29:47.606475,740.984942,-0.2467041015625,-1.171630859375,0.03125,-28.25927734375,-3.41796875,13.427734375
2022-02-14 17:29:47.607475,741.023955,-0.2225341796875,-0.9642333984375,-0.00244140625,-21.6064453125,-5.67626953125,35.7666015625
2022-02-14 17:29:47.608479,741.027576,-0.2120361328125,-0.9329833984375,0.0050048828125,-24.47509765625,-7.50732421875,34.5458984375
2022-02-14 17:29:47.666477,741.04446,-0.2025146484375,-0.956298828125,0.080078125,-33.14208984375,-10.55908203125,25.5126953125
2022-02-14 17:29:47.667477,741.080451,-0.217041015625,-1.0030517578125,0.11328125,-39.97802734375,12.6953125,19.8974609375
2022-02-14 17:29:47.668501,741.086916,-0.2135009765625,-1.0059814453125,0.0587158203125,-40.34423828125,16.54052734375,21.42333984375
2022-02-14 17:29:47.726477,741.103974,-0.210205078125,-1.0025634765625,0.047119140625,-41.015625,12.51220703125,25.45166015625
2022-02-14 17:29:47.727476,741.142951,-0.177978515625,-1.066162109375,0.1566162109375,-43.15185546875,13.3056640625,28.25927734375
2022-02-14 17:29:47.728507,741.146554,-0.247314453125,-1.124267578125,0.216064453125,-44.921875,15.5029296875,29.84619140625
2022-02-14 17:29:47.786475,741.16346,-0.2086181640625,-1.1368408203125,0.2467041015625,-37.53662109375,26.2451171875,45.83740234375
2022-02-14 17:29:47.787476,741.199479,-0.2071533203125,-0.8475341796875,0.2437744140625,-36.31591796875,42.6025390625,62.56103515625
2022-02-14 17:29:47.789475,741.205925,-0.2021484375,-0.82373046875,0.2254638671875,-39.1845703125,45.166015625,56.09130859375
2022-02-14 17:29:47.846477,741.222944,-0.181396484375,-0.805419921875,0.2100830078125,-43.51806640625,46.0205078125,43.0908203125
2022-02-14 17:29:47.847475,741.261982,-0.1353759765625,-0.870849609375,0.3963623046875,-36.865234375,53.1005859375,26.4892578125
2022-02-14 17:29:47.848512,741.265074,-0.133544921875,-0.8424072265625,0.365478515625,-33.3251953125,65.4296875,29.84619140625
2022-02-14 17:29:47.906474,741.282461,-0.0902099609375,-0.81005859375,0.308837890625,-30.1513671875,83.3740234375,33.38623046875
2022-02-14 17:29:47.907475,741.322188,-0.049072265625,-0.87841796875,0.399169921875,-22.03369140625,104.736328125,39.24560546875
2022-02-14 17:29:47.908475,741.337926,-0.037841796875,-0.906494140625,0.4874267578125,6.16455078125,112.36572265625,46.2646484375
2022-02-14 17:29:47.966476,741.349978,0.0325927734375,-0.74267578125,0.2470703125,16.11328125,147.27783203125,63.04931640625
2022-02-14 17:29:47.967476,741.379983,0.1221923828125,-0.5760498046875,-0.061279296875,14.70947265625,147.52197265625,52.24609375
2022-02-14 17:29:47.968524,741.385285,0.1541748046875,-0.6104736328125,-0.017333984375,11.23046875,132.568359375,40.52734375
2022-02-14 17:29:48.026479,741.401003,0.15234375,-0.7381591796875,0.1943359375,6.591796875,110.3515625,18.98193359375
2022-02-14 17:29:48.027476,741.441975,0.135498046875,-0.707275390625,0.1328125,0.30517578125,112.1826171875,-1.03759765625
2022-02-14 17:29:48.028510,741.457119,0.1629638671875,-0.7305908203125,0.2333984375,-0.3662109375,105.3466796875,-6.8359375
2022-02-14 17:29:48.086477,741.469719,0.2059326171875,-0.8388671875,0.323974609375,-6.89697265625,110.29052734375,-20.08056640625
2022-02-14 17:29:48.087477,741.499522,0.2237548828125,-0.974365234375,0.080810546875,-9.58251953125,132.32421875,-21.30126953125
2022-02-14 17:29:48.088520,741.504263,0.22216796875,-0.9716796875,0.0360107421875,-5.126953125,128.72314453125,-15.869140625
2022-02-14 17:29:48.146475,741.520003,0.2625732421875,-0.9166259765625,0.015869140625,3.60107421875,115.478515625,-6.591796875
2022-02-14 17:29:48.147500,741.560959,0.2838134765625,-0.9013671875,0.0784912109375,1.220703125,88.134765625,-12.26806640625
2022-02-14 17:29:48.148506,741.576112,0.294189453125,-0.9464111328125,0.12451171875,0.42724609375,84.41162109375,-14.2822265625
2022-02-14 17:29:48.206477,741.588729,0.265625,-0.969482421875,0.1947021484375,7.6904296875,81.60400390625,-10.43701171875
2022-02-14 17:29:48.207484,741.623956,0.286376953125,-0.87744140625,-0.04345703125,15.0146484375,82.763671875,-2.685546875
2022-02-14 17:29:48.208517,741.630371,0.3037109375,-0.87158203125,-0.0941162109375,14.16015625,77.20947265625,-2.44140625
2022-02-14 17:29:48.266475,741.647466,0.3170166015625,-0.879638671875,-0.0980224609375,16.17431640625,59.6923828125,-4.2724609375
2022-02-14 17:29:48.267475,741.680408,0.3504638671875,-0.9327392578125,-0.0379638671875,16.90673828125,49.9267578125,-5.55419921875
2022-02-14 17:29:48.268520,741.689621,0.3486328125,-0.9482421875,-0.03076171875,16.78466796875,47.2412109375,-6.89697265625
2022-02-14 17:29:48.326477,741.707718,0.396728515625,-0.9786376953125,-0.001708984375,15.19775390625,42.8466796875,-9.033203125
2022-02-14 17:29:48.327476,741.739229,0.3865966796875,-1.0458984375,-0.098388671875,12.63427734375,33.26416015625,-4.57763671875
2022-02-14 17:29:48.328506,741.754372,0.431640625,-1.061767578125,-0.114990234375,22.0947265625,26.42822265625,-3.2958984375
2022-02-14 17:29:48.386477,741.766997,0.4176025390625,-1.1231689453125,-0.10546875,15.9912109375,16.78466796875,-0.79345703125
2022-02-14 17:29:48.387491,741.799394,0.449951171875,-1.009521484375,-0.03564453125,11.23046875,5.18798828125,12.0849609375
2022-02-14 17:29:48.388526,741.813834,0.4105224609375,-1.004638671875,-0.084716796875,4.5166015625,7.4462890625,10.07080078125
2022-02-14 17:29:48.446476,741.826995,0.4454345703125,-1.0430908203125,-0.1619873046875,-6.04248046875,1.64794921875,6.04248046875
2022-02-14 17:29:48.447476,741.861403,0.445068359375,-1.022216796875,-0.0760498046875,-10.92529296875,-17.333984375,15.56396484375
2022-02-14 17:29:48.449475,741.868432,0.445068359375,-0.981201171875,-0.0860595703125,-9.765625,-18.85986328125,17.15087890625
2022-02-14 17:29:48.566567,741.885489,0.431640625,-0.9278564453125,-0.1373291015625,-8.85009765625,-22.4609375,14.2822265625
2022-02-14 17:29:48.567572,741.923952,0.3963623046875,-0.871826171875,-0.0975341796875,-10.3759765625,-39.9169921875,11.5966796875
2022-02-14 17:29:48.568596,741.927555,0.3900146484375,-0.8380126953125,-0.0914306640625,-9.82666015625,-43.3349609375,10.68115234375
2022-02-14 17:29:48.680533,741.944458,0.349365234375,-0.79833984375,-0.079833984375,-11.8408203125,-50.1708984375,6.4697265625
2022-02-14 17:29:48.680533,742.039982,0.24658203125,-0.8017578125,0.1021728515625,-3.90625,-90.6982421875,0.91552734375
2022-02-14 17:29:48.688416,742.046357,0.24072265625,-0.7723388671875,0.118408203125,-3.35693359375,-89.599609375,-0.48828125
2022-02-14 17:29:48.689429,742.0634,0.215576171875,-0.795166015625,0.132568359375,-4.94384765625,-88.56201171875,-7.99560546875
2022-02-14 17:29:48.746417,742.105995,0.1968994140625,-0.866455078125,0.188232421875,0.06103515625,-84.1064453125,-9.82666015625
2022-02-14 17:29:48.747418,742.160385,0.11328125,-0.8773193359375,0.237548828125,11.41357421875,-94.6044921875,-15.13671875
2022-02-14 17:29:48.748445,742.165763,0.101318359375,-0.8819580078125,0.26318359375,13.18359375,-91.1865234375,-15.56396484375
2022-02-14 17:29:48.806416,742.187671,0.1046142578125,-0.8897705078125,0.2803955078125,15.5029296875,-82.3974609375,-17.822265625
2022-02-14 17:29:48.807417,742.219401,0.0762939453125,-0.8934326171875,0.1922607421875,16.7236328125,-65.673828125,-20.3857421875
2022-02-14 17:29:48.808446,742.224763,0.072265625,-0.8819580078125,0.15478515625,16.6015625,-64.27001953125,-20.69091796875
2022-02-14 17:29:48.866416,742.241903,0.0452880859375,-0.883056640625,0.1331787109375,16.2353515625,-66.83349609375,-23.5595703125
2022-02-14 17:29:48.867415,742.280404,0.0189208984375,-0.9459228515625,0.2218017578125,15.0146484375,-67.93212890625,-31.3720703125
2022-02-14 17:29:48.869415,742.285769,0.0162353515625,-0.976806640625,0.2349853515625,14.34326171875,-65.73486328125,-32.2265625
2022-02-14 17:29:48.926417,742.301544,-0.0020751953125,-0.97900390625,0.2183837890625,15.68603515625,-59.6923828125,-28.9306640625
2022-02-14 17:29:48.927419,742.340372,-0.056640625,-0.95556640625,0.1302490234375,22.03369140625,-53.22265625,-26.30615234375
2022-02-14 17:29:48.928418,742.344984,-0.06103515625,-0.961669921875,0.1431884765625,24.59716796875,-54.50439453125,-25.69580078125
2022-02-14 17:29:48.986414,742.360729,-0.0537109375,-0.9521484375,0.211669921875,29.4189453125,-53.77197265625,-23.74267578125
2022-02-14 17:29:48.987415,742.400402,-0.0621337890625,-0.990234375,0.1209716796875,23.13232421875,-29.35791015625,-26.06201171875
2022-02-14 17:29:48.988440,742.403491,-0.0679931640625,-1.01220703125,0.0992431640625,21.6064453125,-27.16064453125,-26.7333984375
2022-02-14 17:29:49.046415,742.420186,-0.10205078125,-1.0740966796875,0.1546630859375,22.216796875,-29.78515625,-25.5126953125
2022-02-14 17:29:49.047415,742.459391,-0.122314453125,-1.0833740234375,0.2110595703125,31.1279296875,-19.59228515625,-10.498046875
2022-02-14 17:29:49.048446,742.462495,-0.1070556640625,-1.0782470703125,0.1964111328125,30.3955078125,-15.44189453125,-8.60595703125
2022-02-14 17:29:49.106414,742.48,-0.0955810546875,-1.052734375,0.112060546875,27.16064453125,-7.8125,-5.31005859375
2022-02-14 17:29:49.107415,742.520954,-0.0740966796875,-1.01953125,0.0235595703125,28.9306640625,-8.7890625,1.220703125
2022-02-14 17:29:49.108445,742.530673,-0.0753173828125,-1.009521484375,0.0224609375,28.1982421875,-9.521484375,1.5869140625
