sys_time,e_fr,e_fl,e_rr,e_rl,rtc,mils,sync,ax,ay,az,gx,gy,gz
2022-07-13 11:54:55.641515,-8,-12,-10,-7,2019-01-01 05.30.11.000000 AM,12229,0,-0.003180667757987976,0.0017065443098545074,0.9903125762939453,0.15795302391052246,-0.14952675998210907,0.7327313423156738
2022-07-13 11:54:55.641515,-8,-12,-10,-7,2019-01-01 05.30.11.000000 AM,12239,0,0.001702144742012024,0.0053686536848545074,0.9849414825439453,0.1274186372756958,-0.5464732646942139,0.7632657289505005
2022-07-13 11:54:55.642516,-8,-12,-10,-7,2019-01-01 05.30.11.000000 AM,12250,0,0.001946285367012024,-0.0014672838151454926,0.9849414825439453,0.09688425064086914,-0.3174656927585602,0.7327313423156738
2022-07-13 11:54:55.642516,-8,-12,-10,-7,2019-01-01 05.30.11.000000 AM,12260,0,0.003899410367012024,0.0058569349348545074,1.0020313262939453,0.26482319831848145,-0.21059545874595642,0.778532862663269
2022-07-13 11:54:55.643520,-8,-12,-10,-7,2019-01-01 05.30.11.000000 AM,12271,0,-0.0004951208829879761,-0.0019555650651454926,0.9881153106689453,0.28009033203125,-0.2716641426086426,0.8090672492980957
2022-07-13 11:54:55.643520,-8,-12,-10,-7,2019-01-01 05.30.11.000000 AM,12281,0,0.002922847867012024,-0.0051293931901454926,0.9856739044189453,0.14268577098846436,-0.3632672131061554,0.7937999963760376
2022-07-13 11:54:55.643520,-8,-12,-10,-7,2019-01-01 05.30.11.000000 AM,12291,0,-0.003180667757987976,0.0034155286848545074,0.9920215606689453,0.15795302391052246,-0.37853437662124634,0.778532862663269
2022-07-13 11:54:55.644520,-8,-12,-10,-7,2019-01-01 05.30.11.000000 AM,12302,0,-0.008795902132987976,-0.0014672838151454926,0.9898242950439453,0.1121513843536377,-0.3632672131061554,0.7174640893936157
2022-07-13 11:54:55.644520,-8,-12,-10,-7,2019-01-01 05.30.11.000000 AM,12312,0,-0.004889652132987976,-2.4400651454925537e-06,0.9934864044189453,0.21902167797088623,-0.3174656927585602,0.6869298219680786
2022-07-13 11:54:55.645517,-8,-12,-10,-7,2019-01-01 05.30.11.000000 AM,12323,0,0.0004814416170120239,0.0009741224348545074,0.9969043731689453,0.14268577098846436,-0.25639697909355164,0.8701359033584595
2022-07-13 11:54:55.645517,-8,-12,-10,-7,2019-01-01 05.30.12.000000 AM,12333,0,0.003166988492012024,-0.0019555650651454926,0.9915332794189453,0.03581559658050537,-0.42433592677116394,0.7479984760284424
2022-07-13 11:54:55.646517,-8,-12,-10,-7,2019-01-01 05.30.12.000000 AM,12343,0,0.0009697228670120239,0.0058569349348545074,0.9920215606689453,0.15795302391052246,-0.34800004959106445,1.0075404644012451
2022-07-13 11:54:55.646517,-8,-12,-10,-7,2019-01-01 05.30.12.000000 AM,12354,0,-0.002936527132987976,0.0009741224348545074,0.9900684356689453,0.1274186372756958,-0.39380156993865967,0.6869298219680786
2022-07-13 11:54:55.646517,-8,-12,-10,-7,2019-01-01 05.30.12.000000 AM,12364,0,-0.001715824007987976,0.0031713880598545074,0.9834766387939453,0.14268577098846436,-0.18006110191345215,0.7479984760284424
2022-07-13 11:54:55.647519,-8,-12,-10,-7,2019-01-01 05.30.12.000000 AM,12375,0,-0.003180667757987976,0.0014624036848545074,0.9871387481689453,0.17322015762329102,-0.18006110191345215,0.885403037071228
2022-07-13 11:54:55.647519,-8,-12,-10,-7,2019-01-01 05.30.12.000000 AM,12385,0,-0.004889652132987976,-0.0034204088151454926,0.9925098419189453,0.20375454425811768,-0.4396030902862549,0.8396015167236328
2022-07-13 11:54:55.648518,-8,-12,-10,-7,2019-01-01 05.30.12.000000 AM,12395,0,-0.001715824007987976,0.0026831068098545074,0.9878711700439453,0.1274186372756958,-0.2411298155784607,0.7937999963760376
2022-07-13 11:54:55.648518,-8,-12,-10,-7,2019-01-01 05.30.12.000000 AM,12406,0,0.004143550992012024,-0.0029321275651454926,0.9849414825439453,0.21902167797088623,-0.42433592677116394,0.7632657289505005
2022-07-13 11:54:55.649519,-8,-12,-10,-7,2019-01-01 05.30.12.000000 AM,12416,0,-0.0002509802579879761,0.0007299818098545074,0.9861621856689453,0.18848729133605957,-0.4090687334537506,0.7479984760284424
2022-07-13 11:54:55.649519,-8,-12,-10,-7,2019-01-01 05.30.12.000000 AM,12427,0,0.002922847867012024,0.0021948255598545074,0.9927539825439453,0.005281209945678711,-0.3174656927585602,0.778532862663269
2022-07-13 11:54:55.650517,-8,-12,-10,-7,2019-01-01 05.30.12.000000 AM,12437,0,0.003411129117012024,0.00048584118485450745,0.9934864044189453,0.08161711692810059,-0.30219849944114685,0.7021969556808472
2022-07-13 11:54:55.650517,-8,-12,-10,-7,2019-01-01 05.30.12.000000 AM,12448,0,0.004875972867012024,0.0046362318098545074,0.9886035919189453,0.15795302391052246,-0.3327328562736511,0.7327313423156738
2022-07-13 11:54:55.650517,-8,-12,-10,-7,2019-01-01 05.30.12.000000 AM,12458,0,-0.000983402132987976,-0.0048852525651454926,0.9927539825439453,0.06634986400604248,-0.3632672131061554,0.7632657289505005
2022-07-13 11:54:55.651518,-8,-12,-10,-7,2019-01-01 05.30.12.000000 AM,12468,0,-0.005133792757987976,-0.0014672838151454926,0.9866504669189453,0.14268577098846436,-0.34800004959106445,0.7632657289505005
2022-07-13 11:54:55.651518,-8,-12,-10,-7,2019-01-01 05.30.12.000000 AM,12479,0,0.006829097867012024,0.0048803724348545074,0.9949512481689453,0.08161711692810059,-0.2869313359260559,0.778532862663269
2022-07-13 11:54:55.652520,-8,-12,-10,-7,2019-01-01 05.30.12.000000 AM,12489,0,-0.005133792757987976,0.0026831068098545074,0.9856739044189453,0.1121513843536377,-0.14952675998210907,0.8396015167236328
2022-07-13 11:54:55.653518,-8,-12,-10,-7,2019-01-01 05.30.12.000000 AM,12500,0,0.0004814416170120239,-0.0043969713151454926,0.9949512481689453,0.20375454425811768,-0.47013744711875916,0.7021969556808472
2022-07-13 11:54:55.653518,-8,-12,-10,-7,2019-01-01 05.30.12.000000 AM,12510,0,0.004387691617012024,0.0031713880598545074,0.9898242950439453,0.20375454425811768,-0.3174656927585602,0.885403037071228
2022-07-13 11:54:55.654517,-8,-12,-10,-7,2019-01-01 05.30.12.000000 AM,12520,0,0.002190425992012024,0.0056127943098545074,0.9915332794189453,0.09688425064086914,-0.34800004959106445,0.7937999963760376
2022-07-13 11:54:55.654517,-8,-12,-10,-7,2019-01-01 05.30.12.000000 AM,12531,0,0.003411129117012024,-0.0014672838151454926,0.9915332794189453,0.2495560646057129,-0.4548702538013458,0.8243343830108643
2022-07-13 11:54:55.654517,-8,-12,-10,-7,2019-01-01 05.30.12.000000 AM,12541,0,0.002922847867012024,0.0043920911848545074,0.9903125762939453,0.18848729133605957,-0.21059545874595642,0.885403037071228
2022-07-13 11:54:55.655517,-8,-12,-10,-7,2019-01-01 05.30.12.000000 AM,12552,0,0.001458004117012024,0.0014624036848545074,0.9915332794189453,0.15795302391052246,-0.3174656927585602,0.6716625690460205
2022-07-13 11:54:55.655517,-8,-12,-10,-7,2019-01-01 05.30.12.000000 AM,12562,0,-0.001471683382987976,0.0048803724348545074,0.9846973419189453,0.23428881168365479,-0.4854046404361725,0.6716625690460205
2022-07-13 11:54:55.656518,-8,-12,-10,-7,2019-01-01 05.30.12.000000 AM,12572,0,-0.001227542757987976,0.0048803724348545074,0.9876270294189453,0.21902167797088623,-0.4548702538013458,0.7327313423156738
2022-07-13 11:54:55.667520,-8,-12,-10,-7,2019-01-01 05.30.12.000000 AM,12583,0,0.001458004117012024,0.0017065443098545074,0.9866504669189453,0.15795302391052246,-0.42433592677116394,0.7174640893936157
2022-07-13 11:54:55.668522,-8,-12,-10,-7,2019-01-01 05.30.12.000000 AM,12593,0,0.008049800992012024,0.0056127943098545074,0.9964160919189453,0.28009033203125,-0.34800004959106445,0.7937999963760376
2022-07-13 11:54:55.668522,-8,-12,-10,-7,2019-01-01 05.30.12.000000 AM,12604,0,0.001458004117012024,0.0014624036848545074,0.9910449981689453,0.1121513843536377,-0.4548702538013458,0.9159374237060547
2022-07-13 11:54:55.669518,-8,-12,-10,-7,2019-01-01 05.30.12.000000 AM,12614,0,0.001458004117012024,-0.0009790025651454926,0.9986133575439453,0.051082730293273926,-0.4396030902862549,0.7937999963760376
2022-07-13 11:54:55.697516,-8,-12,-10,-7,2019-01-01 05.30.12.000000 AM,12625,0,0.00023730099201202393,0.0009741224348545074,0.9881153106689453,0.28009033203125,-0.3174656927585602,0.7632657289505005
2022-07-13 11:54:55.698520,-8,-12,-10,-7,2019-01-01 05.30.12.000000 AM,12635,0,-0.000983402132987976,-0.0007348619401454926,0.9898242950439453,0.21902167797088623,-0.34800004959106445,0.8090672492980957
2022-07-13 11:54:55.699521,-8,-12,-10,-7,2019-01-01 05.30.12.000000 AM,12645,0,0.001458004117012024,0.0009741224348545074,0.9861621856689453,0.1274186372756958,-0.22586262226104736,0.7174640893936157
2022-07-13 11:54:55.699521,-8,-12,-10,-7,2019-01-01 05.30.12.000000 AM,12656,0,-6.839632987976074e-06,0.00024170055985450745,0.9988574981689453,0.21902167797088623,-0.14952675998210907,0.7479984760284424
2022-07-13 11:54:55.717519,-8,-12,-10,-7,2019-01-01 05.30.12.000000 AM,12666,0,-6.839632987976074e-06,-0.0007348619401454926,0.9910449981689453,0.17322015762329102,-0.10372522473335266,0.7479984760284424
2022-07-13 11:54:55.718521,-8,-12,-10,-7,2019-01-01 05.30.12.000000 AM,12677,0,0.001702144742012024,-0.0026879869401454926,0.9895801544189453,-0.05578756332397461,-0.30219849944114685,0.7632657289505005
2022-07-13 11:54:55.719529,-8,-12,-10,-7,2019-01-01 05.30.12.000000 AM,12687,0,-0.0007392615079879761,0.0034155286848545074,0.9898242950439453,0.14268577098846436,-0.42433592677116394,0.8243343830108643
2022-07-13 11:54:55.720519,-8,-12,-10,-7,2019-01-01 05.30.12.000000 AM,12697,0,0.0007255822420120239,0.0021948255598545074,0.9981250762939453,0.17322015762329102,-0.2716641426086426,0.7327313423156738
2022-07-13 11:54:55.750518,-8,-12,-10,-7,2019-01-01 05.30.12.000000 AM,12708,0,0.003655269742012024,0.0039038099348545074,0.9888477325439453,0.17322015762329102,-0.34800004959106445,0.8090672492980957
2022-07-13 11:54:55.751519,-8,-12,-10,-7,2019-01-01 05.30.12.000000 AM,12718,0,0.007317379117012024,0.0009741224348545074,0.9861621856689453,0.26482319831848145,-0.25639697909355164,0.778532862663269
2022-07-13 11:54:55.751519,-8,-12,-10,-7,2019-01-01 05.30.12.000000 AM,12729,0,-0.001227542757987976,0.0017065443098545074,0.9937305450439453,0.17322015762329102,-0.1647939234972,0.7021969556808472
2022-07-13 11:54:55.752518,-8,-12,-10,-7,2019-01-01 05.30.12.000000 AM,12739,0,-0.003913089632987976,0.0007299818098545074,0.9820117950439453,0.09688425064086914,-0.39380156993865967,0.7937999963760376
2022-07-13 11:54:55.768519,-8,-12,-10,-7,2019-01-01 05.30.12.000000 AM,12749,0,0.004387691617012024,-0.0026879869401454926,0.9886035919189453,0.23428881168365479,-0.34800004959106445,0.6869298219680786
2022-07-13 11:54:55.768519,-8,-12,-10,-7,2019-01-01 05.30.12.000000 AM,12760,0,0.002190425992012024,0.0012182630598545074,0.9920215606689453,0.17322015762329102,-0.39380156993865967,0.7937999963760376
2022-07-13 11:54:55.769519,-8,-12,-10,-7,2019-01-01 05.30.12.000000 AM,12770,0,-0.0002509802579879761,0.0031713880598545074,0.9854297637939453,0.09688425064086914,-0.18006110191345215,0.7479984760284424
2022-07-13 11:54:55.769519,-8,-12,-10,-7,2019-01-01 05.30.12.000000 AM,12781,0,0.005852535367012024,-0.0019555650651454926,0.9971485137939453,0.03581559658050537,-0.34800004959106445,0.778532862663269
2022-07-13 11:54:55.791517,-8,-12,-10,-7,2019-01-01 05.30.12.000000 AM,12791,0,-0.004401370882987976,0.0078100599348545074,0.9915332794189453,0.06634986400604248,-0.07319087535142899,0.7632657289505005
2022-07-13 11:54:55.791517,-8,-12,-10,-7,2019-01-01 05.30.12.000000 AM,12802,0,-0.000983402132987976,0.0029272474348545074,0.9883594512939453,0.23428881168365479,-0.4396030902862549,0.9159374237060547
2022-07-13 11:54:55.791517,-8,-12,-10,-7,2019-01-01 05.30.12.000000 AM,12812,0,0.004387691617012024,-0.00024658069014549255,0.9947071075439453,0.21902167797088623,-0.4396030902862549,0.778532862663269
2022-07-13 11:54:55.792516,-8,-12,-10,-7,2019-01-01 05.30.12.000000 AM,12822,0,0.003166988492012024,0.0036596693098545074,0.9846973419189453,0.20375454425811768,-0.2411298155784607,0.778532862663269
2022-07-13 11:54:55.813517,-8,-12,-10,-7,2019-01-01 05.30.12.000000 AM,12833,0,0.001702144742012024,-0.0019555650651454926,0.9934864044189453,0.14268577098846436,-0.21059545874595642,0.5953267812728882
2022-07-13 11:54:55.814522,-8,-12,-10,-7,2019-01-01 05.30.12.000000 AM,12843,0,0.001946285367012024,-0.0019555650651454926,0.9805469512939453,0.23428881168365479,-0.2716641426086426,0.7479984760284424
2022-07-13 11:54:55.815522,-8,-12,-10,-7,2019-01-01 05.30.12.000000 AM,12854,0,0.002434566617012024,0.0007299818098545074,0.9898242950439453,0.08161711692810059,-0.2869313359260559,0.778532862663269
2022-07-13 11:54:55.815522,-8,-12,-10,-7,2019-01-01 05.30.12.000000 AM,12864,0,0.00023730099201202393,-0.0012231431901454926,0.9844532012939453,0.051082730293273926,-0.37853437662124634,0.8396015167236328
2022-07-13 11:54:55.816519,-8,-12,-10,-7,2019-01-01 05.30.12.000000 AM,12874,0,0.00023730099201202393,0.00048584118485450745,0.9832324981689453,0.18848729133605957,-0.3327328562736511,0.7327313423156738
2022-07-13 11:54:55.842517,-8,-12,-10,-7,2019-01-01 05.30.12.000000 AM,12885,0,0.001213863492012024,-0.0039086900651454926,0.9864063262939453,0.051082730293273926,-0.30219849944114685,0.8396015167236328
2022-07-13 11:54:55.842517,-8,-12,-10,-7,2019-01-01 05.30.12.000000 AM,12895,0,-0.001471683382987976,-0.0012231431901454926,0.9895801544189453,0.1274186372756958,-0.42433592677116394,0.8396015167236328
2022-07-13 11:54:55.843518,-8,-12,-10,-7,2019-01-01 05.30.12.000000 AM,12906,0,0.0004814416170120239,0.0017065443098545074,0.9927539825439453,0.2495560646057129,-0.4090687334537506,0.8243343830108643
2022-07-13 11:54:55.843518,-8,-12,-10,-7,2019-01-01 05.30.12.000000 AM,12916,0,-0.001227542757987976,0.0017065443098545074,0.9912891387939453,0.06634986400604248,-0.34800004959106445,0.8090672492980957
2022-07-13 11:54:55.866519,-8,-12,-10,-7,2019-01-01 05.30.12.000000 AM,12926,0,0.002922847867012024,0.0009741224348545074,0.9873828887939453,0.14268577098846436,-0.4854046404361725,0.9159374237060547
2022-07-13 11:54:55.866519,-8,-12,-10,-7,2019-01-01 05.30.12.000000 AM,12937,0,-0.006110355257987976,0.0021948255598545074,0.9900684356689453,0.18848729133605957,-0.2869313359260559,0.8090672492980957
2022-07-13 11:54:55.867520,-8,-12,-10,-7,2019-01-01 05.30.12.000000 AM,12947,0,-0.006354495882987976,0.0021948255598545074,0.9995899200439453,0.09688425064086914,-0.2411298155784607,0.7021969556808472
2022-07-13 11:54:55.867520,-8,-12,-10,-7,2019-01-01 05.30.12.000000 AM,12958,0,0.003655269742012024,0.0036596693098545074,0.9766407012939453,0.4022277593612671,-0.42433592677116394,0.778532862663269
2022-07-13 11:54:55.888517,-8,-12,-10,-7,2019-01-01 05.30.12.000000 AM,12968,0,0.001702144742012024,0.0026831068098545074,0.9927539825439453,0.17322015762329102,-0.2869313359260559,0.8548687696456909
2022-07-13 11:54:55.889519,-8,-12,-10,-7,2019-01-01 05.30.12.000000 AM,12979,0,0.003899410367012024,0.00048584118485450745,0.9920215606689453,0.1274186372756958,-0.42433592677116394,0.8548687696456909
2022-07-13 11:54:55.889519,-8,-12,-10,-7,2019-01-01 05.30.12.000000 AM,12989,0,0.005364254117012024,0.0031713880598545074,0.9942188262939453,0.14268577098846436,-0.39380156993865967,0.9159374237060547
2022-07-13 11:54:55.890519,-8,-12,-10,-7,2019-01-01 05.30.12.000000 AM,12999,0,0.003166988492012024,0.0026831068098545074,0.9971485137939453,0.23428881168365479,-0.4548702538013458,0.7479984760284424
2022-07-13 11:54:55.915518,-8,-12,-10,-7,2019-01-01 05.30.12.000000 AM,13010,0,0.003166988492012024,-0.0024438463151454926,0.9925098419189453,0.18848729133605957,-0.21059545874595642,0.8243343830108643
2022-07-13 11:54:55.915518,-8,-12,-10,-7,2019-01-01 05.30.12.000000 AM,13020,0,-0.007331058382987976,0.0009741224348545074,0.9866504669189453,0.17322015762329102,-0.4548702538013458,0.7327313423156738
2022-07-13 11:54:55.916519,-8,-12,-10,-7,2019-01-01 05.30.12.000000 AM,13031,0,-0.000983402132987976,-0.0009790025651454926,0.9947071075439453,0.15795302391052246,-0.42433592677116394,0.7479984760284424
2022-07-13 11:54:55.917518,-8,-12,-10,-7,2019-01-01 05.30.12.000000 AM,13041,0,0.0004814416170120239,0.0019506849348545074,0.9805469512939453,0.17322015762329102,-0.34800004959106445,0.7479984760284424
2022-07-13 11:54:55.939518,-8,-12,-10,-7,2019-01-01 05.30.12.000000 AM,13051,0,-0.0004951208829879761,0.0026831068098545074,0.9915332794189453,0.17322015762329102,-0.34800004959106445,0.8396015167236328
2022-07-13 11:54:55.941519,-8,-12,-10,-7,2019-01-01 05.30.12.000000 AM,13062,0,0.005608394742012024,0.0017065443098545074,0.9893360137939453,0.21902167797088623,-0.34800004959106445,0.778532862663269
2022-07-13 11:54:55.942518,-8,-12,-10,-7,2019-01-01 05.30.12.000000 AM,13072,0,-0.0002509802579879761,0.0026831068098545074,0.9871387481689453,0.28009033203125,-0.37853437662124634,0.8090672492980957
2022-07-13 11:54:55.944518,-8,-12,-10,-7,2019-01-01 05.30.12.000000 AM,13083,0,-0.004889652132987976,0.0043920911848545074,0.9839649200439453,0.1274186372756958,-0.37853437662124634,0.8090672492980957
2022-07-13 11:54:55.966517,-8,-12,-10,-7,2019-01-01 05.30.12.000000 AM,13093,0,0.001458004117012024,-0.0024438463151454926,0.9851856231689453,0.09688425064086914,-0.39380156993865967,0.8090672492980957
2022-07-13 11:54:55.966517,-8,-12,-10,-7,2019-01-01 05.30.12.000000 AM,13103,0,0.003899410367012024,-0.0029321275651454926,0.9993457794189453,0.08161711692810059,-0.3632672131061554,0.8243343830108643
2022-07-13 11:54:55.967519,-8,-12,-10,-7,2019-01-01 05.30.12.000000 AM,13114,0,0.0009697228670120239,-0.0019555650651454926,0.9864063262939453,0.06634986400604248,-0.3174656927585602,0.8090672492980957
2022-07-13 11:54:55.967519,-8,-12,-10,-7,2019-01-01 05.30.12.000000 AM,13124,0,0.0009697228670120239,0.0046362318098545074,0.9903125762939453,0.2953575849533081,-0.2869313359260559,0.8396015167236328
2022-07-13 11:54:55.988517,-8,-12,-10,-7,2019-01-01 05.30.12.000000 AM,13135,0,0.001213863492012024,0.0014624036848545074,0.9939746856689453,0.2495560646057129,-0.3174656927585602,0.8396015167236328
2022-07-13 11:54:55.989519,-8,-12,-10,-7,2019-01-01 05.30.12.000000 AM,13145,0,-0.003180667757987976,0.0046362318098545074,0.9827442169189453,0.17322015762329102,-0.30219849944114685,0.7327313423156738
2022-07-13 11:54:55.989519,-8,-12,-10,-7,2019-01-01 05.30.12.000000 AM,13156,0,-0.0002509802579879761,-0.0017114244401454926,0.9864063262939453,0.43276214599609375,-0.37853437662124634,0.6411283016204834
2022-07-13 11:54:55.990518,-8,-12,-10,-7,2019-01-01 05.30.12.000000 AM,13166,0,0.003411129117012024,-0.0009790025651454926,0.9929981231689453,0.09688425064086914,-0.6075420379638672,0.8548687696456909
2022-07-13 11:54:56.010515,-8,-12,-10,-7,2019-01-01 05.30.12.000000 AM,13176,0,-0.004401370882987976,-0.0014672838151454926,0.9976367950439453,0.18848729133605957,-0.13425958156585693,0.6869298219680786
2022-07-13 11:54:56.011517,-8,-12,-10,-7,2019-01-01 05.30.12.000000 AM,13187,0,-0.000983402132987976,-0.0029321275651454926,0.9903125762939453,0.1274186372756958,-0.2716641426086426,0.7632657289505005
2022-07-13 11:54:56.011517,-8,-12,-10,-7,2019-01-01 05.30.12.000000 AM,13197,0,0.003411129117012024,0.0041479505598545074,0.9920215606689453,0.21902167797088623,-0.5159389972686768,0.9006702899932861
2022-07-13 11:54:56.012517,-8,-12,-10,-7,2019-01-01 05.30.12.000000 AM,13208,0,0.001213863492012024,-2.4400651454925537e-06,0.9903125762939453,0.1274186372756958,-0.4090687334537506,0.7632657289505005
2022-07-13 11:54:56.039516,-8,-12,-10,-7,2019-01-01 05.30.12.000000 AM,13218,0,0.004875972867012024,-0.0007348619401454926,0.9942188262939453,0.20375454425811768,-0.3632672131061554,0.7021969556808472
2022-07-13 11:54:56.040517,-8,-12,-10,-7,2019-01-01 05.30.12.000000 AM,13228,0,0.003166988492012024,0.010251466184854507,0.9871387481689453,0.23428881168365479,-0.21059545874595642,0.9159374237060547
2022-07-13 11:54:56.040517,-8,-12,-10,-7,2019-01-01 05.30.12.000000 AM,13239,0,0.001213863492012024,0.0048803724348545074,0.9878711700439453,0.14268577098846436,-0.34800004959106445,0.8548687696456909
2022-07-13 11:54:56.041518,-8,-12,-10,-7,2019-01-01 05.30.12.000000 AM,13249,0,0.004143550992012024,0.0009741224348545074,0.9937305450439453,0.2495560646057129,-0.22586262226104736,0.8243343830108643
2022-07-13 11:54:56.063519,-8,-12,-10,-7,2019-01-01 05.30.12.000000 AM,13260,0,-0.0002509802579879761,0.0007299818098545074,0.9942188262939453,0.31062471866607666,-0.39380156993865967,0.7632657289505005
2022-07-13 11:54:56.063519,-8,-12,-10,-7,2019-01-01 05.30.12.000000 AM,13270,0,0.0007255822420120239,0.00024170055985450745,0.9959278106689453,0.18848729133605957,-0.30219849944114685,0.885403037071228
2022-07-13 11:54:56.065525,-8,-12,-10,-7,2019-01-01 05.30.12.000000 AM,13281,0,0.00023730099201202393,0.0012182630598545074,0.9908008575439453,0.051082730293273926,-0.3327328562736511,0.8090672492980957
2022-07-13 11:54:56.065525,-8,-12,-10,-7,2019-01-01 05.30.12.000000 AM,13291,0,0.0004814416170120239,-0.0019555650651454926,0.9932422637939453,0.20375454425811768,-0.34800004959106445,0.778532862663269
2022-07-13 11:54:56.088517,-8,-12,-10,-7,2019-01-01 05.30.12.000000 AM,13301,0,-0.0002509802579879761,0.0065893568098545074,0.9937305450439453,0.2953575849533081,-0.39380156993865967,0.6411283016204834
2022-07-13 11:54:56.089521,-8,-12,-10,-7,2019-01-01 05.30.12.000000 AM,13312,0,0.003655269742012024,-0.0056176744401454926,0.9849414825439453,0.18848729133605957,-0.3632672131061554,0.7174640893936157
2022-07-13 11:54:56.090518,-8,-12,-10,-7,2019-01-01 05.30.12.000000 AM,13322,0,0.002922847867012024,-0.0034204088151454926,0.9876270294189453,0.23428881168365479,-0.3174656927585602,0.5953267812728882
2022-07-13 11:54:56.090518,-8,-12,-10,-7,2019-01-01 05.30.13.000000 AM,13333,0,0.0004814416170120239,0.0012182630598545074,0.9856739044189453,0.20375454425811768,-0.3327328562736511,0.8396015167236328
2022-07-13 11:54:56.113518,-8,-12,-10,-7,2019-01-01 05.30.13.000000 AM,13343,0,-0.001471683382987976,-0.0034204088151454926,0.9871387481689453,0.2953575849533081,-0.3174656927585602,0.7021969556808472
2022-07-13 11:54:56.114520,-8,-12,-10,-7,2019-01-01 05.30.13.000000 AM,13353,0,-0.001227542757987976,0.0012182630598545074,0.9912891387939453,0.08161711692810059,-0.37853437662124634,0.7632657289505005
2022-07-13 11:54:56.114520,-8,-12,-10,-7,2019-01-01 05.30.13.000000 AM,13364,0,0.0004814416170120239,0.0065893568098545074,0.9934864044189453,0.23428881168365479,-0.2716641426086426,0.778532862663269
2022-07-13 11:54:56.115535,-8,-12,-10,-7,2019-01-01 05.30.13.000000 AM,13374,0,-0.003424808382987976,-0.0026879869401454926,0.9859180450439453,0.06634986400604248,-0.34800004959106445,0.9312045574188232
2022-07-13 11:54:56.136523,-8,-12,-10,-7,2019-01-01 05.30.13.000000 AM,13385,0,-0.001715824007987976,-0.0019555650651454926,0.9827442169189453,0.17322015762329102,-0.37853437662124634,0.7327313423156738
2022-07-13 11:54:56.136523,-8,-12,-10,-7,2019-01-01 05.30.13.000000 AM,13395,0,0.005364254117012024,-0.0004907213151454926,0.9937305450439453,0.2495560646057129,-0.34800004959106445,0.778532862663269
2022-07-13 11:54:56.137517,-8,-12,-10,-7,2019-01-01 05.30.13.000000 AM,13405,0,0.004387691617012024,0.0043920911848545074,0.9956836700439453,0.14268577098846436,-0.22586262226104736,0.8701359033584595
2022-07-13 11:54:56.138532,-8,-12,-10,-7,2019-01-01 05.30.13.000000 AM,13416,0,0.0009697228670120239,-0.00024658069014549255,0.9915332794189453,0.08161711692810059,-0.18006110191345215,0.8396015167236328
2022-07-13 11:54:56.165573,-8,-12,-10,-7,2019-01-01 05.30.13.000000 AM,13426,0,0.003655269742012024,0.0078100599348545074,0.9905567169189453,0.1121513843536377,-0.37853437662124634,0.8548687696456909
2022-07-13 11:54:56.166516,-8,-12,-10,-7,2019-01-01 05.30.13.000000 AM,13437,0,-0.0007392615079879761,0.0034155286848545074,0.9920215606689453,0.2953575849533081,-0.3327328562736511,0.8396015167236328
2022-07-13 11:54:56.166516,-8,-12,-10,-7,2019-01-01 05.30.13.000000 AM,13447,0,-0.004157230257987976,0.0009741224348545074,0.9932422637939453,0.1274186372756958,-0.30219849944114685,0.7937999963760376
2022-07-13 11:54:56.167528,-8,-12,-10,-7,2019-01-01 05.30.13.000000 AM,13458,0,-0.002448245882987976,-0.0073266588151454926,0.9793262481689453,0.21902167797088623,-0.4090687334537506,0.8090672492980957
2022-07-13 11:54:56.185734,-8,-12,-10,-7,2019-01-01 05.30.13.000000 AM,13468,0,-0.0007392615079879761,0.0029272474348545074,0.9903125762939453,0.17322015762329102,-0.18006110191345215,0.7937999963760376
2022-07-13 11:54:56.186730,-8,-12,-10,-7,2019-01-01 05.30.13.000000 AM,13478,0,0.001213863492012024,0.0029272474348545074,0.9854297637939453,0.28009033203125,-0.42433592677116394,0.6411283016204834
2022-07-13 11:54:56.186730,-8,-12,-10,-7,2019-01-01 05.30.13.000000 AM,13489,0,-0.003913089632987976,-0.0014672838151454926,0.9878711700439453,0.18848729133605957,-0.2411298155784607,0.8548687696456909
2022-07-13 11:54:56.187702,-8,-12,-10,-7,2019-01-01 05.30.13.000000 AM,13499,0,-6.839632987976074e-06,-0.00024658069014549255,0.9951953887939453,0.20375454425811768,-0.4396030902862549,0.8396015167236328
2022-07-13 11:54:56.210272,-8,-12,-10,-7,2019-01-01 05.30.13.000000 AM,13510,0,0.002678707242012024,0.0026831068098545074,0.9920215606689453,0.15795302391052246,-0.5006717443466187,0.7632657289505005
2022-07-13 11:54:56.210272,-8,-12,-10,-7,2019-01-01 05.30.13.000000 AM,13520,0,0.0009697228670120239,-0.0043969713151454926,0.9849414825439453,0.21902167797088623,-0.39380156993865967,0.6869298219680786
2022-07-13 11:54:56.211272,-8,-12,-10,-7,2019-01-01 05.30.13.000000 AM,13530,0,0.0009697228670120239,-0.00024658069014549255,0.9898242950439453,0.06634986400604248,-0.3174656927585602,0.8243343830108643
2022-07-13 11:54:56.211272,-8,-12,-10,-7,2019-01-01 05.30.13.000000 AM,13541,0,0.003411129117012024,0.0061010755598545074,0.9893360137939453,0.14268577098846436,-0.2716641426086426,0.7632657289505005
2022-07-13 11:54:56.237827,-8,-12,-10,-7,2019-01-01 05.30.13.000000 AM,13551,0,-0.001715824007987976,0.0026831068098545074,0.9969043731689453,0.2495560646057129,-0.34800004959106445,0.9006702899932861
2022-07-13 11:54:56.238794,-8,-12,-10,-7,2019-01-01 05.30.13.000000 AM,13562,0,0.003899410367012024,0.010251466184854507,0.9910449981689453,0.020548343658447266,-0.2869313359260559,0.8548687696456909
2022-07-13 11:54:56.238794,-8,-12,-10,-7,2019-01-01 05.30.13.000000 AM,13572,0,-0.001959964632987976,0.0026831068098545074,0.9895801544189453,0.17322015762329102,-0.30219849944114685,0.778532862663269
2022-07-13 11:54:56.239825,-8,-12,-10,-7,2019-01-01 05.30.13.000000 AM,13582,0,0.003655269742012024,0.0073217786848545074,0.9898242950439453,0.08161711692810059,-0.4090687334537506,0.8243343830108643
2022-07-13 11:54:56.259216,-8,-12,-10,-7,2019-01-01 05.30.13.000000 AM,13593,0,-0.0002509802579879761,-0.0061059556901454926,0.9868946075439453,0.21902167797088623,-0.3632672131061554,0.7632657289505005
2022-07-13 11:54:56.259216,-8,-12,-10,-7,2019-01-01 05.30.13.000000 AM,13603,0,-0.002936527132987976,0.0021948255598545074,0.9800586700439453,0.3258918523788452,-0.22586262226104736,0.778532862663269
2022-07-13 11:54:56.259216,-8,-12,-10,-7,2019-01-01 05.30.13.000000 AM,13614,0,-0.001959964632987976,-0.0004907213151454926,0.9866504669189453,0.15795302391052246,-0.4090687334537506,0.8396015167236328
2022-07-13 11:54:56.260237,-8,-12,-10,-7,2019-01-01 05.30.13.000000 AM,13624,0,-0.004157230257987976,0.0026831068098545074,0.9861621856689453,0.18848729133605957,-0.37853437662124634,0.8243343830108643
2022-07-13 11:54:56.282864,-8,-12,-10,-7,2019-01-01 05.30.13.000000 AM,13635,0,0.003166988492012024,0.0021948255598545074,0.9995899200439453,0.09688425064086914,-0.2869313359260559,0.7327313423156738
2022-07-13 11:54:56.282864,-8,-12,-10,-7,2019-01-01 05.30.13.000000 AM,13645,0,0.001458004117012024,0.0031713880598545074,0.9876270294189453,0.17322015762329102,-0.34800004959106445,0.778532862663269
2022-07-13 11:54:56.283864,-8,-12,-10,-7,2019-01-01 05.30.13.000000 AM,13655,0,-0.002936527132987976,0.0063452161848545074,0.9925098419189453,0.23428881168365479,-0.3632672131061554,0.8701359033584595
2022-07-13 11:54:56.283864,-8,-12,-10,-7,2019-01-01 05.30.13.000000 AM,13666,0,0.005608394742012024,-0.0043969713151454926,0.9944629669189453,0.1274186372756958,-0.39380156993865967,0.8396015167236328
2022-07-13 11:54:56.505808,-8,-12,-10,-7,2019-01-01 05.30.13.000000 AM,14041,0,0.001458004117012024,0.0041479505598545074,0.9829883575439453,0.18848729133605957,-0.5770076513290405,0.6716625690460205
2022-07-13 11:54:56.529781,-8,-12,-10,-7,2019-01-01 05.30.13.000000 AM,14051,0,-0.000983402132987976,-0.0009790025651454926,0.9866504669189453,0.20375454425811768,-0.30219849944114685,0.8090672492980957
2022-07-13 11:54:56.530781,-8,-12,-10,-7,2019-01-01 05.30.13.000000 AM,14061,0,0.003166988492012024,0.0039038099348545074,0.9876270294189453,0.17322015762329102,-0.5312061309814453,0.6411283016204834
2022-07-13 11:54:56.530781,-8,-12,-10,-7,2019-01-01 05.30.13.000000 AM,14072,0,-0.001959964632987976,0.0021948255598545074,0.9937305450439453,0.23428881168365479,-0.3174656927585602,0.778532862663269
2022-07-13 11:54:56.531781,-8,-12,-10,-7,2019-01-01 05.30.13.000000 AM,14082,0,-0.001959964632987976,-0.00024658069014549255,0.9893360137939453,0.20375454425811768,-0.2869313359260559,0.778532862663269
2022-07-13 11:54:56.532786,-8,-12,-10,-7,2019-01-01 05.30.13.000000 AM,14093,0,0.002434566617012024,0.00048584118485450745,0.9868946075439453,0.23428881168365479,-0.30219849944114685,0.7479984760284424
2022-07-13 11:54:56.553777,-8,-12,-10,-7,2019-01-01 05.30.13.000000 AM,14103,0,-0.0007392615079879761,-0.0019555650651454926,0.9876270294189453,0.14268577098846436,-0.3632672131061554,0.8090672492980957
2022-07-13 11:54:56.554785,-8,-12,-10,-7,2019-01-01 05.30.13.000000 AM,14113,0,0.002922847867012024,-0.0014672838151454926,0.9859180450439453,0.15795302391052246,-0.37853437662124634,0.9159374237060547
2022-07-13 11:54:56.554785,-8,-12,-10,-7,2019-01-01 05.30.13.000000 AM,14124,0,0.003655269742012024,0.0039038099348545074,0.9878711700439453,0.09688425064086914,-0.42433592677116394,0.885403037071228
2022-07-13 11:54:56.555781,-8,-12,-10,-7,2019-01-01 05.30.13.000000 AM,14134,0,0.00023730099201202393,-0.0012231431901454926,0.9888477325439453,0.23428881168365479,-0.2869313359260559,0.8090672492980957
2022-07-13 11:54:56.577814,-8,-12,-10,-7,2019-01-01 05.30.13.000000 AM,14145,0,0.003899410367012024,0.0031713880598545074,0.9944629669189453,0.1274186372756958,-0.3327328562736511,0.7937999963760376
2022-07-13 11:54:56.577814,-8,-12,-10,-7,2019-01-01 05.30.13.000000 AM,14155,0,0.006584957242012024,0.0036596693098545074,0.9873828887939453,0.15795302391052246,-0.30219849944114685,0.7937999963760376
2022-07-13 11:54:56.578782,-8,-12,-10,-7,2019-01-01 05.30.13.000000 AM,14166,0,-0.0007392615079879761,0.00024170055985450745,0.9951953887939453,0.20375454425811768,-0.21059545874595642,0.6716625690460205
2022-07-13 11:54:56.578782,-8,-12,-10,-7,2019-01-01 05.30.13.000000 AM,14176,0,-0.000983402132987976,-0.0031762681901454926,0.9876270294189453,0.20375454425811768,-0.4090687334537506,0.7174640893936157
2022-07-13 11:54:56.602780,-8,-12,-10,-7,2019-01-01 05.30.13.000000 AM,14186,0,-0.002448245882987976,0.0070776380598545074,0.9949512481689453,0.15795302391052246,-0.4548702538013458,0.7632657289505005
2022-07-13 11:54:56.602780,-8,-12,-10,-7,2019-01-01 05.30.13.000000 AM,14197,0,0.004143550992012024,-0.0046411119401454926,0.9944629669189453,0.20375454425811768,-0.34800004959106445,0.7632657289505005
2022-07-13 11:54:56.603778,-8,-12,-10,-7,2019-01-01 05.30.13.000000 AM,14207,0,0.00023730099201202393,0.0031713880598545074,0.9912891387939453,0.14268577098846436,-0.3327328562736511,0.8243343830108643
2022-07-13 11:54:56.604779,-8,-12,-10,-7,2019-01-01 05.30.13.000000 AM,14218,0,0.0007255822420120239,0.0024389661848545074,0.9912891387939453,0.18848729133605957,-0.3327328562736511,0.778532862663269
2022-07-13 11:54:56.625810,-8,-12,-10,-7,2019-01-01 05.30.13.000000 AM,14228,0,-0.002204105257987976,0.0012182630598545074,0.9932422637939453,0.08161711692810059,-0.3632672131061554,0.6105939149856567
2022-07-13 11:54:56.626780,-8,-12,-10,-7,2019-01-01 05.30.13.000000 AM,14238,0,-0.003668949007987976,-0.00024658069014549255,0.9915332794189453,0.051082730293273926,-0.21059545874595642,0.8701359033584595
2022-07-13 11:54:56.626780,-8,-12,-10,-7,2019-01-01 05.30.13.000000 AM,14249,0,-0.001715824007987976,0.0007299818098545074,0.9856739044189453,0.1121513843536377,-0.39380156993865967,0.7021969556808472
2022-07-13 11:54:56.627779,-8,-12,-10,-7,2019-01-01 05.30.13.000000 AM,14259,0,0.0007255822420120239,0.0024389661848545074,0.9890918731689453,0.18848729133605957,-0.2716641426086426,0.5953267812728882
2022-07-13 11:54:56.653811,-8,-12,-10,-7,2019-01-01 05.30.13.000000 AM,14270,0,0.002922847867012024,-0.0004907213151454926,1.0012989044189453,0.17322015762329102,-0.25639697909355164,0.7937999963760376
2022-07-13 11:54:56.654781,-8,-12,-10,-7,2019-01-01 05.30.13.000000 AM,14280,0,0.003166988492012024,0.0053686536848545074,0.9895801544189453,0.08161711692810059,-0.2869313359260559,0.8243343830108643
2022-07-13 11:54:56.654781,-8,-12,-10,-7,2019-01-01 05.30.13.000000 AM,14290,0,0.007317379117012024,-0.0014672838151454926,0.9873828887939453,0.23428881168365479,-0.30219849944114685,0.885403037071228
2022-07-13 11:54:56.656783,-8,-12,-10,-7,2019-01-01 05.30.13.000000 AM,14301,0,-0.001471683382987976,0.0009741224348545074,0.9915332794189453,0.26482319831848145,-0.4090687334537506,0.6869298219680786
2022-07-13 11:54:56.675817,-8,-12,-10,-7,2019-01-01 05.30.13.000000 AM,14311,0,-0.0002509802579879761,-0.0058618150651454926,0.9915332794189453,0.08161711692810059,-0.2716641426086426,0.7479984760284424
2022-07-13 11:54:56.676781,-8,-12,-10,-7,2019-01-01 05.30.13.000000 AM,14322,0,0.006584957242012024,0.0043920911848545074,0.9849414825439453,0.09688425064086914,-0.2716641426086426,0.656395435333252
2022-07-13 11:54:56.676781,-8,-12,-10,-7,2019-01-01 05.30.14.000000 AM,14332,0,-0.0007392615079879761,-0.0031762681901454926,0.9868946075439453,0.20375454425811768,-0.5006717443466187,0.8243343830108643
2022-07-13 11:54:56.677779,-8,-12,-10,-7,2019-01-01 05.30.14.000000 AM,14343,0,0.001458004117012024,-0.0007348619401454926,0.9859180450439453,0.1121513843536377,-0.3174656927585602,0.7937999963760376
2022-07-13 11:54:56.699808,-8,-12,-10,-7,2019-01-01 05.30.14.000000 AM,14353,0,0.006340816617012024,0.0021948255598545074,0.9883594512939453,0.2953575849533081,-0.3174656927585602,0.7937999963760376
2022-07-13 11:54:56.700781,-8,-12,-10,-7,2019-01-01 05.30.14.000000 AM,14363,0,-0.003424808382987976,0.0041479505598545074,0.9871387481689453,0.20375454425811768,-0.39380156993865967,0.656395435333252
2022-07-13 11:54:56.700781,-8,-12,-10,-7,2019-01-01 05.30.14.000000 AM,14374,0,0.003166988492012024,0.00048584118485450745,0.9825000762939453,0.1121513843536377,-0.4396030902862549,0.7937999963760376
2022-07-13 11:54:56.701781,-8,-12,-10,-7,2019-01-01 05.30.14.000000 AM,14384,0,0.003166988492012024,0.0029272474348545074,0.9864063262939453,0.09688425064086914,-0.42433592677116394,0.778532862663269
2022-07-13 11:54:56.727779,-8,-12,-10,-7,2019-01-01 05.30.14.000000 AM,14395,0,-0.001227542757987976,0.0056127943098545074,0.9937305450439453,0.06634986400604248,-0.4090687334537506,0.6869298219680786
2022-07-13 11:54:56.727779,-8,-12,-10,-7,2019-01-01 05.30.14.000000 AM,14405,0,0.003411129117012024,0.0041479505598545074,0.9878711700439453,0.26482319831848145,-0.4090687334537506,0.778532862663269
2022-07-13 11:54:56.728781,-8,-12,-10,-7,2019-01-01 05.30.14.000000 AM,14415,0,0.002678707242012024,0.0039038099348545074,0.9851856231689453,0.21902167797088623,-0.30219849944114685,0.8701359033584595
2022-07-13 11:54:56.728781,-8,-12,-10,-7,2019-01-01 05.30.14.000000 AM,14426,0,0.001458004117012024,0.0041479505598545074,0.9871387481689453,0.21902167797088623,-0.34800004959106445,0.7174640893936157
2022-07-13 11:54:56.750777,-8,-12,-10,-7,2019-01-01 05.30.14.000000 AM,14436,0,0.0009697228670120239,-0.0009790025651454926,0.9900684356689453,0.26482319831848145,-0.4090687334537506,0.9770060777664185
2022-07-13 11:54:56.751782,-8,-12,-10,-7,2019-01-01 05.30.14.000000 AM,14447,0,-0.002936527132987976,0.0009741224348545074,0.9954395294189453,0.15795302391052246,-0.2869313359260559,0.6411283016204834
2022-07-13 11:54:56.751782,-8,-12,-10,-7,2019-01-01 05.30.14.000000 AM,14457,0,0.003166988492012024,0.0034155286848545074,0.9981250762939453,0.2953575849533081,-0.25639697909355164,0.8243343830108643
2022-07-13 11:54:56.752781,-8,-12,-10,-7,2019-01-01 05.30.14.000000 AM,14467,0,-0.001959964632987976,0.0012182630598545074,0.9973926544189453,0.09688425064086914,-0.34800004959106445,0.7632657289505005
2022-07-13 11:54:56.778778,-8,-12,-10,-7,2019-01-01 05.30.14.000000 AM,14478,0,0.001458004117012024,0.0012182630598545074,0.9890918731689453,0.15795302391052246,-0.34800004959106445,0.7327313423156738
2022-07-13 11:54:56.778778,-8,-12,-10,-7,2019-01-01 05.30.14.000000 AM,14488,0,-0.001715824007987976,0.0009741224348545074,0.9898242950439453,0.20375454425811768,-0.25639697909355164,0.778532862663269
2022-07-13 11:54:56.779781,-8,-12,-10,-7,2019-01-01 05.30.14.000000 AM,14499,0,0.002678707242012024,0.0039038099348545074,1.0012989044189453,0.1121513843536377,-0.5312061309814453,0.7937999963760376
2022-07-13 11:54:56.780781,-8,-12,-10,-7,2019-01-01 05.30.14.000000 AM,14509,0,-0.001959964632987976,-2.4400651454925537e-06,0.9937305450439453,0.15795302391052246,-0.4396030902862549,0.9312045574188232
2022-07-13 11:54:56.799810,-8,-12,-10,-7,2019-01-01 05.30.14.000000 AM,14520,0,0.001213863492012024,0.0065893568098545074,0.9917774200439453,0.03581559658050537,-0.47013744711875916,0.8090672492980957
2022-07-13 11:54:56.800779,-8,-12,-10,-7,2019-01-01 05.30.14.000000 AM,14530,0,-6.839632987976074e-06,0.0073217786848545074,0.9859180450439453,0.1121513843536377,-0.25639697909355164,0.8243343830108643
2022-07-13 11:54:56.800779,-8,-12,-10,-7,2019-01-01 05.30.14.000000 AM,14540,0,-0.001227542757987976,0.0051245130598545074,0.9978809356689453,0.23428881168365479,-0.42433592677116394,0.8548687696456909
2022-07-13 11:54:56.801778,-8,-12,-10,-7,2019-01-01 05.30.14.000000 AM,14551,0,0.001213863492012024,-0.0031762681901454926,0.9956836700439453,0.09688425064086914,-0.42433592677116394,0.8090672492980957
2022-07-13 11:54:56.849808,-8,-12,-10,-7,2019-01-01 05.30.14.000000 AM,14561,0,0.003655269742012024,0.0007299818098545074,0.9893360137939453,0.15795302391052246,-0.2869313359260559,0.7937999963760376
2022-07-13 11:54:56.850779,-8,-12,-10,-7,2019-01-01 05.30.14.000000 AM,14572,0,0.005852535367012024,-0.0014672838151454926,0.9886035919189453,0.17322015762329102,-0.22586262226104736,0.6105939149856567
2022-07-13 11:54:56.850779,-8,-12,-10,-7,2019-01-01 05.30.14.000000 AM,14582,0,-0.001471683382987976,-0.0034204088151454926,0.9920215606689453,0.08161711692810059,-0.3174656927585602,0.8701359033584595
2022-07-13 11:54:56.851777,-8,-12,-10,-7,2019-01-01 05.30.14.000000 AM,14592,0,-0.002936527132987976,0.0036596693098545074,0.9900684356689453,0.1274186372756958,-0.2869313359260559,0.7937999963760376
2022-07-13 11:54:56.894816,-8,-12,-10,-7,2019-01-01 05.30.14.000000 AM,14603,0,-0.003424808382987976,-0.0021997056901454926,0.9927539825439453,0.2495560646057129,-0.3327328562736511,0.8243343830108643
2022-07-13 11:54:56.895779,-8,-12,-10,-7,2019-01-01 05.30.14.000000 AM,14613,0,-0.004157230257987976,0.0026831068098545074,0.9859180450439453,0.20375454425811768,-0.4090687334537506,0.885403037071228
2022-07-13 11:54:56.895779,-8,-12,-10,-7,2019-01-01 05.30.14.000000 AM,14624,0,-0.004401370882987976,-0.00024658069014549255,0.9908008575439453,0.18848729133605957,-0.34800004959106445,0.9159374237060547
2022-07-13 11:54:56.896781,-8,-12,-10,-7,2019-01-01 05.30.14.000000 AM,14634,0,-0.0004951208829879761,-0.0021997056901454926,0.9922657012939453,0.005281209945678711,-0.3632672131061554,0.8243343830108643
2022-07-13 11:54:56.917777,-8,-12,-10,-7,2019-01-01 05.30.14.000000 AM,14644,0,0.001213863492012024,0.0039038099348545074,0.9866504669189453,0.06634986400604248,-0.25639697909355164,0.6869298219680786
2022-07-13 11:54:56.917777,-8,-12,-10,-7,2019-01-01 05.30.14.000000 AM,14655,0,0.001946285367012024,-0.0017114244401454926,0.9893360137939453,0.09688425064086914,-0.22586262226104736,0.778532862663269
2022-07-13 11:54:56.918782,-8,-12,-10,-7,2019-01-01 05.30.14.000000 AM,14665,0,-0.0002509802579879761,0.0019506849348545074,0.9864063262939453,0.1121513843536377,-0.39380156993865967,0.778532862663269
2022-07-13 11:54:56.918782,-8,-12,-10,-7,2019-01-01 05.30.14.000000 AM,14676,0,0.003655269742012024,-0.0061059556901454926,0.9942188262939453,0.18848729133605957,-0.2411298155784607,0.778532862663269
2022-07-13 11:54:56.967780,-8,-12,-10,-7,2019-01-01 05.30.14.000000 AM,14686,0,-0.007086917757987976,-0.0014672838151454926,0.9959278106689453,0.1121513843536377,-0.2716641426086426,0.7327313423156738
2022-07-13 11:54:56.967780,-8,-12,-10,-7,2019-01-01 05.30.14.000000 AM,14697,0,0.0004814416170120239,0.0036596693098545074,0.9905567169189453,0.23428881168365479,-0.5464732646942139,0.8396015167236328
2022-07-13 11:54:56.968782,-8,-12,-10,-7,2019-01-01 05.30.14.000000 AM,14707,0,0.00023730099201202393,0.0007299818098545074,0.9866504669189453,0.15795302391052246,-0.39380156993865967,0.7174640893936157
2022-07-13 11:54:56.969780,-8,-12,-10,-7,2019-01-01 05.30.14.000000 AM,14717,0,-0.002204105257987976,0.0009741224348545074,0.9927539825439453,0.18848729133605957,-0.4090687334537506,0.8396015167236328
2022-07-13 11:54:57.029776,-8,-12,-10,-7,2019-01-01 05.30.14.000000 AM,14728,0,0.0009697228670120239,0.0070776380598545074,0.9954395294189453,0.15795302391052246,-0.3327328562736511,0.9159374237060547
2022-07-13 11:54:57.030778,-8,-12,-10,-7,2019-01-01 05.30.14.000000 AM,14738,0,0.001458004117012024,-0.0056176744401454926,0.9903125762939453,0.1121513843536377,-0.3327328562736511,0.9006702899932861
2022-07-13 11:54:57.031784,-8,-12,-10,-7,2019-01-01 05.30.14.000000 AM,14749,0,-6.839632987976074e-06,-0.0019555650651454926,0.9910449981689453,0.28009033203125,-0.34800004959106445,0.885403037071228
2022-07-13 11:54:57.032778,-8,-12,-10,-7,2019-01-01 05.30.14.000000 AM,14759,0,0.001458004117012024,-0.0007348619401454926,0.9944629669189453,0.23428881168365479,-0.13425958156585693,0.8090672492980957
2022-07-13 11:54:57.061779,-8,-12,-10,-7,2019-01-01 05.30.14.000000 AM,14769,0,-0.001471683382987976,0.0048803724348545074,0.9908008575439453,0.20375454425811768,-0.19532828032970428,0.8701359033584595
2022-07-13 11:54:57.062779,-8,-12,-10,-7,2019-01-01 05.30.14.000000 AM,14780,0,-0.0002509802579879761,0.0012182630598545074,0.9934864044189453,0.15795302391052246,-0.3632672131061554,0.7937999963760376
2022-07-13 11:54:57.063785,-8,-12,-10,-7,2019-01-01 05.30.14.000000 AM,14790,0,0.006829097867012024,0.0017065443098545074,0.9995899200439453,0.2495560646057129,-0.4548702538013458,0.7632657289505005
2022-07-13 11:54:57.064798,-8,-12,-10,-7,2019-01-01 05.30.14.000000 AM,14801,0,0.0007255822420120239,0.00048584118485450745,0.9969043731689453,0.14268577098846436,-0.3174656927585602,0.8243343830108643
2022-07-13 11:54:57.083810,-8,-12,-10,-7,2019-01-01 05.30.14.000000 AM,14811,0,-0.007819339632987976,0.0014624036848545074,0.9978809356689453,0.17322015762329102,-0.3174656927585602,0.7021969556808472
2022-07-13 11:54:57.084777,-8,-12,-10,-7,2019-01-01 05.30.14.000000 AM,14821,0,-0.007331058382987976,0.0029272474348545074,0.9883594512939453,-0.07105469703674316,-0.30219849944114685,0.885403037071228
2022-07-13 11:54:57.084777,-8,-12,-10,-7,2019-01-01 05.30.14.000000 AM,14832,0,-0.0004951208829879761,0.0051245130598545074,0.9969043731689453,-0.009985923767089844,-0.21059545874595642,0.7174640893936157
2022-07-13 11:54:57.085782,-8,-12,-10,-7,2019-01-01 05.30.14.000000 AM,14842,0,-0.001959964632987976,-0.0004907213151454926,0.9893360137939453,0.31062471866607666,-0.30219849944114685,0.8243343830108643
2022-07-13 11:54:57.133785,-8,-12,-10,-7,2019-01-01 05.30.14.000000 AM,14853,0,-0.001715824007987976,0.00024170055985450745,0.9969043731689453,0.17322015762329102,-0.2716641426086426,0.7937999963760376
2022-07-13 11:54:57.134782,-8,-12,-10,-7,2019-01-01 05.30.14.000000 AM,14863,0,0.006096675992012024,0.0039038099348545074,0.9922657012939453,0.21902167797088623,-0.2716641426086426,0.8396015167236328
2022-07-13 11:54:57.134782,-8,-12,-10,-7,2019-01-01 05.30.14.000000 AM,14874,0,-0.0004951208829879761,0.0009741224348545074,0.9903125762939453,0.1121513843536377,-0.34800004959106445,0.8548687696456909
2022-07-13 11:54:57.136777,-8,-12,-10,-7,2019-01-01 05.30.14.000000 AM,14884,0,-0.002692386507987976,-0.0012231431901454926,0.9954395294189453,0.20375454425811768,-0.3174656927585602,0.8396015167236328
2022-07-13 11:54:57.183779,-8,-12,-10,-7,2019-01-01 05.30.14.000000 AM,14894,0,0.0004814416170120239,0.0036596693098545074,0.9937305450439453,0.26482319831848145,-0.4090687334537506,0.8243343830108643
2022-07-13 11:54:57.183779,-8,-12,-10,-7,2019-01-01 05.30.14.000000 AM,14905,0,-6.839632987976074e-06,0.0031713880598545074,0.9927539825439453,0.20375454425811768,-0.3327328562736511,0.7937999963760376
2022-07-13 11:54:57.184779,-8,-12,-10,-7,2019-01-01 05.30.14.000000 AM,14915,0,-0.002204105257987976,-0.009035643190145493,1.0003223419189453,0.1121513843536377,-0.2411298155784607,0.8090672492980957
2022-07-13 11:54:57.185779,-8,-12,-10,-7,2019-01-01 05.30.14.000000 AM,14926,0,0.001458004117012024,0.00048584118485450745,0.9851856231689453,0.20375454425811768,-0.2869313359260559,0.8396015167236328
2022-07-13 11:54:57.217779,-8,-12,-10,-7,2019-01-01 05.30.14.000000 AM,14936,0,-0.002692386507987976,0.0075659193098545074,0.9932422637939453,0.06634986400604248,-0.39380156993865967,0.7174640893936157
2022-07-13 11:54:57.217779,-8,-12,-10,-7,2019-01-01 05.30.14.000000 AM,14946,0,0.002434566617012024,0.0019506849348545074,0.9825000762939453,0.21902167797088623,-0.37853437662124634,0.8243343830108643
2022-07-13 11:54:57.218780,-8,-12,-10,-7,2019-01-01 05.30.14.000000 AM,14957,0,0.004143550992012024,0.0012182630598545074,0.9900684356689453,0.03581559658050537,-0.25639697909355164,0.8243343830108643
2022-07-13 11:54:57.218780,-8,-12,-10,-7,2019-01-01 05.30.14.000000 AM,14967,0,0.006340816617012024,0.0036596693098545074,0.9849414825439453,0.20375454425811768,-0.22586262226104736,0.6716625690460205
2022-07-13 11:54:57.257781,-8,-12,-10,-7,2019-01-01 05.30.14.000000 AM,14978,0,0.003166988492012024,-2.4400651454925537e-06,0.9866504669189453,0.06634986400604248,-0.47013744711875916,0.7937999963760376
2022-07-13 11:54:57.257781,-8,-12,-10,-7,2019-01-01 05.30.14.000000 AM,14988,0,-0.001715824007987976,-0.0026879869401454926,0.9834766387939453,0.20375454425811768,-0.2716641426086426,0.7632657289505005
2022-07-13 11:54:57.258781,-8,-12,-10,-7,2019-01-01 05.30.14.000000 AM,14998,0,0.005120113492012024,-0.0021997056901454926,0.9868946075439453,0.18848729133605957,-0.4548702538013458,0.7174640893936157
2022-07-13 11:54:57.258781,-8,-12,-10,-7,2019-01-01 05.30.14.000000 AM,15009,0,0.0009697228670120239,0.0073217786848545074,0.9798145294189453,0.2495560646057129,-0.3327328562736511,0.8396015167236328
2022-07-13 11:54:57.300808,-8,-12,-10,-7,2019-01-01 05.30.14.000000 AM,15019,0,-6.839632987976074e-06,0.0007299818098545074,0.9900684356689453,0.005281209945678711,-0.3632672131061554,0.6411283016204834
2022-07-13 11:54:57.301778,-8,-12,-10,-7,2019-01-01 05.30.14.000000 AM,15030,0,0.001458004117012024,0.0017065443098545074,0.9920215606689453,0.15795302391052246,-0.21059545874595642,0.8396015167236328
2022-07-13 11:54:57.302779,-8,-12,-10,-7,2019-01-01 05.30.14.000000 AM,15040,0,0.0007255822420120239,-0.0019555650651454926,0.9895801544189453,0.31062471866607666,-0.37853437662124634,0.7632657289505005
2022-07-13 11:54:57.302779,-8,-12,-10,-7,2019-01-01 05.30.14.000000 AM,15051,0,0.002922847867012024,0.0026831068098545074,0.9881153106689453,0.20375454425811768,-0.3327328562736511,0.8090672492980957
2022-07-13 11:54:57.351110,-8,-12,-10,-7,2019-01-01 05.30.14.000000 AM,15061,0,0.001458004117012024,0.0019506849348545074,0.9866504669189453,0.18848729133605957,-0.19532828032970428,0.7632657289505005
2022-07-13 11:54:57.352078,-8,-12,-10,-7,2019-01-01 05.30.14.000000 AM,15071,0,-0.003424808382987976,0.0065893568098545074,0.9917774200439453,0.15795302391052246,-0.30219849944114685,0.7327313423156738
2022-07-13 11:54:57.352078,-8,-12,-10,-7,2019-01-01 05.30.14.000000 AM,15082,0,0.003655269742012024,-0.0014672838151454926,0.9951953887939453,0.1274186372756958,-0.3174656927585602,0.549525260925293
2022-07-13 11:54:57.353080,-8,-12,-10,-7,2019-01-01 05.30.14.000000 AM,15092,0,0.004631832242012024,0.0046362318098545074,0.9932422637939453,0.14268577098846436,-0.4548702538013458,0.7479984760284424
2022-07-13 11:54:57.393251,-8,-12,-10,-7,2019-01-01 05.30.14.000000 AM,15103,0,-0.0007392615079879761,-0.0019555650651454926,0.9898242950439453,0.20375454425811768,-0.2411298155784607,0.8090672492980957
2022-07-13 11:54:57.394215,-8,-12,-10,-7,2019-01-01 05.30.14.000000 AM,15113,0,-0.0004951208829879761,-0.0012231431901454926,0.9925098419189453,0.15795302391052246,-0.5006717443466187,0.885403037071228
2022-07-13 11:54:57.395214,-8,-12,-10,-7,2019-01-01 05.30.14.000000 AM,15123,0,-0.0007392615079879761,-0.0031762681901454926,0.9890918731689453,0.15795302391052246,-0.21059545874595642,0.7479984760284424
2022-07-13 11:54:57.395214,-8,-12,-10,-7,2019-01-01 05.30.14.000000 AM,15134,0,-6.839632987976074e-06,0.0048803724348545074,0.9859180450439453,0.20375454425811768,-0.3174656927585602,0.7632657289505005
2022-07-13 11:54:57.420213,-8,-12,-10,-7,2019-01-01 05.30.14.000000 AM,15144,0,0.0009697228670120239,-0.0041528306901454926,0.9922657012939453,0.28009033203125,-0.34800004959106445,0.7479984760284424
2022-07-13 11:54:57.420213,-8,-12,-10,-7,2019-01-01 05.30.14.000000 AM,15155,0,-0.001959964632987976,-0.0053735338151454926,0.9915332794189453,0.18848729133605957,-0.37853437662124634,0.9006702899932861
2022-07-13 11:54:57.421213,-8,-12,-10,-7,2019-01-01 05.30.14.000000 AM,15165,0,0.005120113492012024,-0.0053735338151454926,0.9871387481689453,0.14268577098846436,-0.4090687334537506,0.7479984760284424
2022-07-13 11:54:57.422217,-8,-12,-10,-7,2019-01-01 05.30.14.000000 AM,15175,0,0.002434566617012024,0.0051245130598545074,0.9834766387939453,0.21902167797088623,-0.42433592677116394,0.6105939149856567
2022-07-13 11:54:57.466220,-8,-12,-10,-7,2019-01-01 05.30.14.000000 AM,15186,0,0.001213863492012024,-0.0017114244401454926,0.9873828887939453,0.17322015762329102,-0.2716641426086426,0.7174640893936157
2022-07-13 11:54:57.467216,-8,-12,-10,-7,2019-01-01 05.30.14.000000 AM,15196,0,-0.004645511507987976,-0.0026879869401454926,0.9925098419189453,0.1121513843536377,-0.4854046404361725,0.7327313423156738
2022-07-13 11:54:57.467216,-8,-12,-10,-7,2019-01-01 05.30.14.000000 AM,15207,0,0.001458004117012024,0.0058569349348545074,0.9881153106689453,-0.0252530574798584,-0.34800004959106445,0.7021969556808472
2022-07-13 11:54:57.468230,-8,-12,-10,-7,2019-01-01 05.30.14.000000 AM,15217,0,-0.000983402132987976,0.0019506849348545074,0.9910449981689453,0.14268577098846436,-0.3174656927585602,0.9617389440536499
2022-07-13 11:54:57.516237,-8,-12,-10,-7,2019-01-01 05.30.14.000000 AM,15228,0,0.003166988492012024,-0.0007348619401454926,0.9800586700439453,0.17322015762329102,-0.3327328562736511,0.6869298219680786
2022-07-13 11:54:57.516237,-8,-12,-10,-7,2019-01-01 05.30.14.000000 AM,15238,0,0.001213863492012024,0.0007299818098545074,0.9895801544189453,0.1274186372756958,-0.19532828032970428,0.8243343830108643
2022-07-13 11:54:57.518216,-8,-12,-10,-7,2019-01-01 05.30.14.000000 AM,15248,0,-0.003913089632987976,-0.0009790025651454926,0.9908008575439453,0.28009033203125,-0.14952675998210907,0.7479984760284424
2022-07-13 11:54:57.519217,-8,-12,-10,-7,2019-01-01 05.30.14.000000 AM,15259,0,0.00023730099201202393,-0.0034204088151454926,0.9893360137939453,0.21902167797088623,-0.4396030902862549,0.8243343830108643
2022-07-13 11:54:57.520219,-8,-12,-10,-7,2019-01-01 05.30.14.000000 AM,15269,0,0.001702144742012024,0.0043920911848545074,0.9947071075439453,0.20375454425811768,-0.21059545874595642,0.7479984760284424
2022-07-13 11:54:57.561216,-8,-12,-10,-7,2019-01-01 05.30.14.000000 AM,15280,0,0.001702144742012024,-0.0021997056901454926,0.9976367950439453,0.1274186372756958,-0.18006110191345215,0.7632657289505005
2022-07-13 11:54:57.562218,-8,-12,-10,-7,2019-01-01 05.30.14.000000 AM,15290,0,0.007317379117012024,0.0036596693098545074,0.9856739044189453,0.15795302391052246,-0.30219849944114685,0.8396015167236328
2022-07-13 11:54:57.562218,-8,-12,-10,-7,2019-01-01 05.30.14.000000 AM,15300,0,0.005120113492012024,0.0024389661848545074,0.9956836700439453,0.15795302391052246,-0.39380156993865967,0.7479984760284424
2022-07-13 11:54:57.563235,-8,-12,-10,-7,2019-01-01 05.30.14.000000 AM,15311,0,0.00023730099201202393,0.0034155286848545074,0.9915332794189453,0.09688425064086914,-0.34800004959106445,0.778532862663269
2022-07-13 11:54:57.611215,-8,-12,-10,-7,2019-01-01 05.30.14.000000 AM,15321,0,0.003166988492012024,-0.00024658069014549255,0.9910449981689453,0.23428881168365479,-0.34800004959106445,0.8548687696456909
2022-07-13 11:54:57.611215,-8,-12,-10,-7,2019-01-01 05.30.15.000000 AM,15332,0,0.0007255822420120239,-0.0009790025651454926,0.9890918731689453,0.2495560646057129,-0.42433592677116394,0.8396015167236328
2022-07-13 11:54:57.612214,-8,-12,-10,-7,2019-01-01 05.30.15.000000 AM,15342,0,0.002678707242012024,0.0048803724348545074,0.9798145294189453,0.21902167797088623,-0.21059545874595642,0.778532862663269
2022-07-13 11:54:57.612214,-8,-12,-10,-7,2019-01-01 05.30.15.000000 AM,15352,0,0.002190425992012024,-0.0043969713151454926,0.9873828887939453,0.1274186372756958,-0.4548702538013458,0.6258610486984253
2022-07-13 11:54:57.641249,-8,-12,-10,-7,2019-01-01 05.30.15.000000 AM,15363,0,0.002922847867012024,0.0058569349348545074,0.9859180450439453,0.09688425064086914,-0.4396030902862549,0.7937999963760376
2022-07-13 11:54:57.641249,-8,-12,-10,-7,2019-01-01 05.30.15.000000 AM,15373,0,-0.002204105257987976,0.0024389661848545074,0.9917774200439453,0.26482319831848145,-0.4090687334537506,0.8548687696456909
2022-07-13 11:54:57.642218,-8,-12,-10,-7,2019-01-01 05.30.15.000000 AM,15384,0,-6.839632987976074e-06,0.00024170055985450745,0.9966602325439453,0.17322015762329102,-0.2716641426086426,0.7174640893936157
2022-07-13 11:54:57.642218,-8,-12,-10,-7,2019-01-01 05.30.15.000000 AM,15394,0,-0.0004951208829879761,0.00048584118485450745,0.9922657012939453,0.2495560646057129,-0.2716641426086426,0.778532862663269
2022-07-13 11:54:57.678245,-8,-12,-10,-7,2019-01-01 05.30.15.000000 AM,15405,0,0.003411129117012024,-0.0007348619401454926,0.9951953887939453,0.14268577098846436,-0.1189924031496048,0.8090672492980957
2022-07-13 11:54:57.679214,-8,-12,-10,-7,2019-01-01 05.30.15.000000 AM,15415,0,0.0009697228670120239,0.0021948255598545074,0.9859180450439453,0.020548343658447266,-0.2869313359260559,0.8396015167236328
2022-07-13 11:54:57.680216,-8,-12,-10,-7,2019-01-01 05.30.15.000000 AM,15425,0,0.001702144742012024,-0.0021997056901454926,0.9949512481689453,0.08161711692810059,-0.3327328562736511,0.7327313423156738
2022-07-13 11:54:57.680216,-8,-12,-10,-7,2019-01-01 05.30.15.000000 AM,15436,0,0.001702144742012024,-0.0019555650651454926,0.9876270294189453,0.14268577098846436,-0.3327328562736511,0.885403037071228
2022-07-13 11:54:57.727246,-8,-12,-10,-7,2019-01-01 05.30.15.000000 AM,15446,0,-0.0002509802579879761,-0.0053735338151454926,0.9854297637939453,0.051082730293273926,-0.34800004959106445,0.9312045574188232
2022-07-13 11:54:57.728216,-8,-12,-10,-7,2019-01-01 05.30.15.000000 AM,15457,0,0.008538082242012024,-0.0012231431901454926,0.9951953887939453,0.17322015762329102,-0.37853437662124634,0.8396015167236328
2022-07-13 11:54:57.728216,-8,-12,-10,-7,2019-01-01 05.30.15.000000 AM,15467,0,0.001946285367012024,0.0021948255598545074,0.9842090606689453,0.14268577098846436,-0.4854046404361725,0.7327313423156738
2022-07-13 11:54:57.729213,-8,-12,-10,-7,2019-01-01 05.30.15.000000 AM,15477,0,0.001702144742012024,0.0048803724348545074,0.9903125762939453,0.14268577098846436,-0.3632672131061554,0.8090672492980957
2022-07-13 11:54:57.782216,-8,-12,-10,-7,2019-01-01 05.30.15.000000 AM,15488,0,-0.001471683382987976,0.0024389661848545074,0.9881153106689453,0.26482319831848145,-0.3327328562736511,0.6869298219680786
2022-07-13 11:54:57.783215,-8,-12,-10,-7,2019-01-01 05.30.15.000000 AM,15498,0,0.002190425992012024,0.0053686536848545074,0.9959278106689453,0.21902167797088623,-0.2716641426086426,0.8701359033584595
2022-07-13 11:54:57.784215,-8,-12,-10,-7,2019-01-01 05.30.15.000000 AM,15509,0,0.002190425992012024,-0.0017114244401454926,0.9929981231689453,0.005281209945678711,-0.5922747850418091,0.6411283016204834
2022-07-13 11:54:57.786215,-8,-12,-10,-7,2019-01-01 05.30.15.000000 AM,15519,0,-0.001471683382987976,-0.0031762681901454926,0.9929981231689453,0.2495560646057129,-0.30219849944114685,0.7021969556808472
2022-07-13 11:54:57.800218,-8,-12,-10,-7,2019-01-01 05.30.15.000000 AM,15529,0,-0.003913089632987976,-0.0004907213151454926,0.9908008575439453,0.1121513843536377,-0.30219849944114685,0.7021969556808472
2022-07-13 11:54:57.800218,-8,-12,-10,-7,2019-01-01 05.30.15.000000 AM,15540,0,0.002678707242012024,-0.00024658069014549255,0.9949512481689453,0.14268577098846436,-0.21059545874595642,0.7479984760284424
2022-07-13 11:54:57.801215,-8,-12,-10,-7,2019-01-01 05.30.15.000000 AM,15550,0,-0.002692386507987976,-0.0034204088151454926,0.9986133575439453,0.2953575849533081,-0.37853437662124634,0.6869298219680786
2022-07-13 11:54:57.803215,-8,-12,-10,-7,2019-01-01 05.30.15.000000 AM,15561,0,-0.003424808382987976,0.0041479505598545074,0.9886035919189453,0.23428881168365479,-0.2411298155784607,0.885403037071228
2022-07-13 11:54:57.861214,-8,-12,-10,-7,2019-01-01 05.30.15.000000 AM,15571,0,0.002678707242012024,-0.0024438463151454926,0.9881153106689453,0.2495560646057129,-0.3174656927585602,0.8396015167236328
2022-07-13 11:54:57.861214,-8,-12,-10,-7,2019-01-01 05.30.15.000000 AM,15582,0,0.001702144742012024,-0.0026879869401454926,0.9900684356689453,0.15795302391052246,-0.4090687334537506,0.7937999963760376
2022-07-13 11:54:57.862215,-8,-12,-10,-7,2019-01-01 05.30.15.000000 AM,15592,0,0.003166988492012024,-0.0014672838151454926,0.9932422637939453,0.14268577098846436,-0.3327328562736511,0.8090672492980957
2022-07-13 11:54:57.863215,-8,-12,-10,-7,2019-01-01 05.30.15.000000 AM,15602,0,-0.005866214632987976,0.0024389661848545074,0.9925098419189453,0.18848729133605957,-0.25639697909355164,0.7479984760284424
2022-07-13 11:54:57.896217,-8,-12,-10,-7,2019-01-01 05.30.15.000000 AM,15613,0,0.003899410367012024,-0.0039086900651454926,0.9925098419189453,0.1121513843536377,-0.42433592677116394,0.885403037071228
2022-07-13 11:54:57.896217,-8,-12,-10,-7,2019-01-01 05.30.15.000000 AM,15623,0,0.001213863492012024,-0.0024438463151454926,0.9944629669189453,0.2495560646057129,-0.39380156993865967,0.885403037071228
2022-07-13 11:54:57.898226,-8,-12,-10,-7,2019-01-01 05.30.15.000000 AM,15634,0,0.007317379117012024,0.0034155286848545074,0.9961719512939453,0.14268577098846436,-0.37853437662124634,0.7632657289505005
2022-07-13 11:54:57.898226,-8,-12,-10,-7,2019-01-01 05.30.15.000000 AM,15644,0,0.00023730099201202393,-0.0014672838151454926,0.9876270294189453,0.020548343658447266,-0.3632672131061554,0.7327313423156738
2022-07-13 11:54:57.946218,-8,-12,-10,-7,2019-01-01 05.30.15.000000 AM,15654,0,-0.002692386507987976,-0.0031762681901454926,0.9978809356689453,0.17322015762329102,-0.3327328562736511,0.8090672492980957
2022-07-13 11:54:57.947215,-8,-12,-10,-7,2019-01-01 05.30.15.000000 AM,15665,0,-0.002936527132987976,0.0009741224348545074,0.9868946075439453,0.3564262390136719,-0.4548702538013458,0.8548687696456909
2022-07-13 11:54:57.948230,-8,-12,-10,-7,2019-01-01 05.30.15.000000 AM,15675,0,-0.0007392615079879761,-0.0026879869401454926,0.9905567169189453,0.21902167797088623,-0.3174656927585602,0.8090672492980957
2022-07-13 11:54:57.948230,-8,-12,-10,-7,2019-01-01 05.30.15.000000 AM,15686,0,0.004143550992012024,0.00024170055985450745,0.9932422637939453,0.21902167797088623,-0.4090687334537506,0.7937999963760376
2022-07-13 11:54:57.968215,-8,-12,-10,-7,2019-01-01 05.30.15.000000 AM,15696,0,0.001946285367012024,0.0014624036848545074,0.9959278106689453,0.1121513843536377,-0.3174656927585602,0.8701359033584595
2022-07-13 11:54:57.969215,-8,-12,-10,-7,2019-01-01 05.30.15.000000 AM,15706,0,0.005608394742012024,-0.0009790025651454926,0.9895801544189453,0.08161711692810059,-0.30219849944114685,0.778532862663269
2022-07-13 11:54:57.969215,-8,-12,-10,-7,2019-01-01 05.30.15.000000 AM,15717,0,0.001702144742012024,0.0056127943098545074,0.9876270294189453,0.14268577098846436,-0.5006717443466187,0.8243343830108643
2022-07-13 11:54:57.970215,-8,-12,-10,-7,2019-01-01 05.30.15.000000 AM,15727,0,0.002678707242012024,-0.0039086900651454926,0.9934864044189453,0.26482319831848145,-0.19532828032970428,0.8548687696456909
2022-07-13 11:54:58.020217,-8,-12,-10,-7,2019-01-01 05.30.15.000000 AM,15738,0,0.005852535367012024,0.0012182630598545074,0.9856739044189453,0.051082730293273926,-0.3327328562736511,0.8701359033584595
2022-07-13 11:54:58.020217,-8,-12,-10,-7,2019-01-01 05.30.15.000000 AM,15748,0,0.00023730099201202393,-0.0019555650651454926,0.9915332794189453,0.21902167797088623,-0.14952675998210907,0.8548687696456909
2022-07-13 11:54:58.021215,-8,-12,-10,-7,2019-01-01 05.30.15.000000 AM,15759,0,0.002922847867012024,-2.4400651454925537e-06,0.9981250762939453,0.2495560646057129,-0.18006110191345215,0.778532862663269
2022-07-13 11:54:58.021215,-8,-12,-10,-7,2019-01-01 05.30.15.000000 AM,15769,0,0.002190425992012024,-2.4400651454925537e-06,0.9854297637939453,0.31062471866607666,-0.39380156993865967,0.8243343830108643
2022-07-13 11:54:58.065218,-8,-12,-10,-7,2019-01-01 05.30.15.000000 AM,15779,0,0.0004814416170120239,-2.4400651454925537e-06,0.9920215606689453,0.17322015762329102,-0.25639697909355164,0.8701359033584595
2022-07-13 11:54:58.065218,-8,-12,-10,-7,2019-01-01 05.30.15.000000 AM,15790,0,-0.0002509802579879761,0.0019506849348545074,0.9876270294189453,0.005281209945678711,-0.21059545874595642,0.8548687696456909
2022-07-13 11:54:58.066217,-8,-12,-10,-7,2019-01-01 05.30.15.000000 AM,15800,0,-0.0002509802579879761,0.0019506849348545074,0.9878711700439453,0.18848729133605957,-0.3327328562736511,0.8396015167236328
2022-07-13 11:54:58.066217,-8,-12,-10,-7,2019-01-01 05.30.15.000000 AM,15811,0,-0.0002509802579879761,-0.0021997056901454926,0.9851856231689453,0.17322015762329102,-0.25639697909355164,0.8548687696456909
2022-07-13 11:54:58.093215,-8,-12,-10,-7,2019-01-01 05.30.15.000000 AM,15821,0,0.003655269742012024,-0.0009790025651454926,0.9866504669189453,0.14268577098846436,-0.4548702538013458,0.7632657289505005
2022-07-13 11:54:58.094216,-8,-12,-10,-7,2019-01-01 05.30.15.000000 AM,15831,0,-0.002692386507987976,-0.0012231431901454926,0.9873828887939453,0.20375454425811768,-0.30219849944114685,0.8243343830108643
2022-07-13 11:54:58.095214,-8,-12,-10,-7,2019-01-01 05.30.15.000000 AM,15842,0,0.00023730099201202393,-0.0024438463151454926,0.9873828887939453,0.17322015762329102,-0.4090687334537506,0.6411283016204834
2022-07-13 11:54:58.095214,-8,-12,-10,-7,2019-01-01 05.30.15.000000 AM,15852,0,0.00023730099201202393,0.0021948255598545074,0.9790821075439453,0.20375454425811768,-0.37853437662124634,0.7479984760284424
2022-07-13 11:54:58.142247,-8,-12,-10,-7,2019-01-01 05.30.15.000000 AM,15863,0,-0.001471683382987976,-0.0014672838151454926,0.9876270294189453,0.2495560646057129,-0.39380156993865967,0.7632657289505005
2022-07-13 11:54:58.143216,-8,-12,-10,-7,2019-01-01 05.30.15.000000 AM,15873,0,0.005120113492012024,0.00024170055985450745,0.9925098419189453,0.14268577098846436,-0.42433592677116394,0.7327313423156738
2022-07-13 11:54:58.143216,-8,-12,-10,-7,2019-01-01 05.30.15.000000 AM,15883,0,-0.0004951208829879761,0.0014624036848545074,0.9915332794189453,0.17322015762329102,-0.42433592677116394,0.6716625690460205
2022-07-13 11:54:58.144218,-8,-12,-10,-7,2019-01-01 05.30.15.000000 AM,15894,0,-0.0002509802579879761,-0.0007348619401454926,0.9922657012939453,0.08161711692810059,-0.39380156993865967,0.9922733306884766
2022-07-13 11:54:58.187216,-8,-12,-10,-7,2019-01-01 05.30.15.000000 AM,15904,0,0.002922847867012024,-0.0048852525651454926,0.9961719512939453,-0.040520429611206055,-0.37853437662124634,0.8396015167236328
2022-07-13 11:54:58.188218,-8,-12,-10,-7,2019-01-01 05.30.15.000000 AM,15915,0,-0.000983402132987976,0.0029272474348545074,0.9910449981689453,0.005281209945678711,-0.3327328562736511,0.778532862663269
2022-07-13 11:54:58.188218,-8,-12,-10,-7,2019-01-01 05.30.15.000000 AM,15925,0,0.002678707242012024,-0.0046411119401454926,0.9932422637939453,0.17322015762329102,-0.4548702538013458,0.7021969556808472
2022-07-13 11:54:58.189215,-8,-12,-10,-7,2019-01-01 05.30.15.000000 AM,15936,0,0.005608394742012024,0.0017065443098545074,0.9868946075439453,0.17322015762329102,-0.30219849944114685,0.8090672492980957
2022-07-13 11:54:58.237216,-8,-12,-10,-7,2019-01-01 05.30.15.000000 AM,15946,0,0.001458004117012024,0.0053686536848545074,0.9927539825439453,0.06634986400604248,-0.30219849944114685,0.9006702899932861
2022-07-13 11:54:58.238217,-8,-12,-10,-7,2019-01-01 05.30.15.000000 AM,15956,0,-0.0004951208829879761,0.0014624036848545074,0.9851856231689453,0.2495560646057129,-0.37853437662124634,0.8243343830108643
2022-07-13 11:54:58.238217,-8,-12,-10,-7,2019-01-01 05.30.15.000000 AM,15967,0,-0.002936527132987976,0.0026831068098545074,0.9898242950439453,0.06634986400604248,-0.3327328562736511,0.8396015167236328
2022-07-13 11:54:58.239218,-8,-12,-10,-7,2019-01-01 05.30.15.000000 AM,15977,0,-0.004157230257987976,-0.0004907213151454926,0.9895801544189453,0.2495560646057129,-0.4396030902862549,0.778532862663269
2022-07-13 11:54:58.260214,-8,-12,-10,-7,2019-01-01 05.30.15.000000 AM,15988,0,0.003411129117012024,0.0012182630598545074,0.9917774200439453,0.21902167797088623,-0.34800004959106445,0.885403037071228
2022-07-13 11:54:58.260214,-8,-12,-10,-7,2019-01-01 05.30.15.000000 AM,15998,0,0.00023730099201202393,-0.0029321275651454926,0.9873828887939453,0.26482319831848145,-0.4396030902862549,0.7479984760284424
2022-07-13 11:54:58.260214,-8,-12,-10,-7,2019-01-01 05.30.15.000000 AM,16008,0,0.0004814416170120239,0.0041479505598545074,1.0005664825439453,0.15795302391052246,-0.2411298155784607,0.9159374237060547
2022-07-13 11:54:58.261214,-8,-12,-10,-7,2019-01-01 05.30.15.000000 AM,16019,0,0.0009697228670120239,0.0075659193098545074,0.9856739044189453,0.005281209945678711,-0.25639697909355164,0.7632657289505005
2022-07-13 11:54:58.310218,-8,-12,-10,-7,2019-01-01 05.30.15.000000 AM,16029,0,-0.006842777132987976,-0.0014672838151454926,0.9851856231689453,0.09688425064086914,-0.2716641426086426,0.8243343830108643
2022-07-13 11:54:58.310218,-8,-12,-10,-7,2019-01-01 05.30.15.000000 AM,16040,0,-0.001959964632987976,-0.0034204088151454926,0.9942188262939453,0.18848729133605957,-0.4854046404361725,0.656395435333252
2022-07-13 11:54:58.311218,-8,-12,-10,-7,2019-01-01 05.30.15.000000 AM,16050,0,0.002922847867012024,0.0026831068098545074,0.9932422637939453,0.2953575849533081,-0.3632672131061554,0.8243343830108643
2022-07-13 11:54:58.311218,-8,-12,-10,-7,2019-01-01 05.30.15.000000 AM,16060,0,-0.003424808382987976,0.0024389661848545074,0.9942188262939453,0.26482319831848145,-0.22586262226104736,0.6258610486984253
2022-07-13 11:54:58.357218,-8,-12,-10,-7,2019-01-01 05.30.15.000000 AM,16071,0,-0.001471683382987976,0.0012182630598545074,0.9944629669189453,0.03581559658050537,-0.5312061309814453,0.7632657289505005
2022-07-13 11:54:58.358218,-8,-12,-10,-7,2019-01-01 05.30.15.000000 AM,16081,0,-0.002448245882987976,0.0061010755598545074,1.0003223419189453,0.3258918523788452,-0.39380156993865967,0.778532862663269
2022-07-13 11:54:58.358218,-8,-12,-10,-7,2019-01-01 05.30.15.000000 AM,16092,0,-0.0007392615079879761,-0.0019555650651454926,0.9927539825439453,0.06634986400604248,-0.2869313359260559,0.6411283016204834
2022-07-13 11:54:58.358218,-8,-12,-10,-7,2019-01-01 05.30.15.000000 AM,16102,0,0.009514644742012024,0.0007299818098545074,0.9822559356689453,0.26482319831848145,-0.39380156993865967,0.8090672492980957
2022-07-13 11:54:58.405213,-8,-12,-10,-7,2019-01-01 05.30.15.000000 AM,16113,0,0.00023730099201202393,0.0029272474348545074,0.9986133575439453,0.08161711692810059,-0.4396030902862549,0.6869298219680786
2022-07-13 11:54:58.406222,-8,-12,-10,-7,2019-01-01 05.30.15.000000 AM,16123,0,-0.011481449007987976,0.0043920911848545074,0.9893360137939453,0.15795302391052246,-0.37853437662124634,0.7021969556808472
2022-07-13 11:54:58.407214,-8,-12,-10,-7,2019-01-01 05.30.15.000000 AM,16133,0,0.002678707242012024,0.0031713880598545074,0.9864063262939453,0.08161711692810059,-0.19532828032970428,0.8548687696456909
2022-07-13 11:54:58.407214,-8,-12,-10,-7,2019-01-01 05.30.15.000000 AM,16144,0,-0.003180667757987976,-0.0053735338151454926,0.9898242950439453,0.20375454425811768,-0.1189924031496048,0.778532862663269
2022-07-13 11:54:58.427213,-8,-12,-10,-7,2019-01-01 05.30.15.000000 AM,16154,0,0.002190425992012024,0.00024170055985450745,0.9942188262939453,0.20375454425811768,-0.30219849944114685,0.7479984760284424
2022-07-13 11:54:58.428214,-8,-12,-10,-7,2019-01-01 05.30.15.000000 AM,16165,0,-0.0007392615079879761,0.00048584118485450745,0.9888477325439453,0.08161711692810059,-0.37853437662124634,0.6716625690460205
2022-07-13 11:54:58.428214,-8,-12,-10,-7,2019-01-01 05.30.15.000000 AM,16175,0,0.004387691617012024,-0.0031762681901454926,0.9966602325439453,0.3411591053009033,-0.3174656927585602,0.8243343830108643
2022-07-13 11:54:58.429214,-8,-12,-10,-7,2019-01-01 05.30.15.000000 AM,16185,0,0.00023730099201202393,-0.0007348619401454926,0.9959278106689453,0.2953575849533081,-0.34800004959106445,0.7174640893936157
2022-07-13 11:54:58.476215,-8,-12,-10,-7,2019-01-01 05.30.15.000000 AM,16196,0,-0.003180667757987976,0.0065893568098545074,0.9898242950439453,0.17322015762329102,-0.25639697909355164,0.6258610486984253
2022-07-13 11:54:58.476215,-8,-12,-10,-7,2019-01-01 05.30.15.000000 AM,16206,0,-0.0002509802579879761,-2.4400651454925537e-06,0.9883594512939453,0.21902167797088623,-0.3632672131061554,0.7327313423156738
2022-07-13 11:54:58.477216,-8,-12,-10,-7,2019-01-01 05.30.15.000000 AM,16217,0,-0.001227542757987976,0.0063452161848545074,0.9890918731689453,0.3258918523788452,-0.21059545874595642,0.7327313423156738
2022-07-13 11:54:58.477216,-8,-12,-10,-7,2019-01-01 05.30.15.000000 AM,16227,0,-0.0004951208829879761,-0.0009790025651454926,0.9859180450439453,0.06634986400604248,-0.4090687334537506,0.8090672492980957
2022-07-13 11:54:58.522215,-8,-12,-10,-7,2019-01-01 05.30.15.000000 AM,16237,0,-6.839632987976074e-06,-0.0017114244401454926,0.9910449981689453,0.1274186372756958,-0.47013744711875916,0.885403037071228
2022-07-13 11:54:58.523217,-8,-12,-10,-7,2019-01-01 05.30.15.000000 AM,16248,0,0.0007255822420120239,0.0012182630598545074,0.9864063262939453,0.2495560646057129,-0.4548702538013458,0.7327313423156738
2022-07-13 11:54:58.523217,-8,-12,-10,-7,2019-01-01 05.30.15.000000 AM,16258,0,0.004143550992012024,0.0031713880598545074,0.9868946075439453,0.17322015762329102,-0.3327328562736511,0.7937999963760376
2022-07-13 11:54:58.523217,-8,-12,-10,-7,2019-01-01 05.30.15.000000 AM,16269,0,-0.001227542757987976,0.0007299818098545074,0.9876270294189453,0.31062471866607666,-0.3174656927585602,0.7327313423156738
2022-07-13 11:54:58.571217,-8,-12,-10,-7,2019-01-01 05.30.15.000000 AM,16279,0,-0.000983402132987976,-0.0004907213151454926,0.9844532012939453,0.3411591053009033,-0.25639697909355164,0.8548687696456909
2022-07-13 11:54:58.571217,-8,-12,-10,-7,2019-01-01 05.30.15.000000 AM,16290,0,-0.001959964632987976,0.0063452161848545074,0.9888477325439453,0.08161711692810059,-0.5006717443466187,0.6258610486984253
2022-07-13 11:54:58.572218,-8,-12,-10,-7,2019-01-01 05.30.15.000000 AM,16300,0,-0.002448245882987976,0.0034155286848545074,0.9922657012939453,0.09688425064086914,-0.25639697909355164,0.9464718103408813
2022-07-13 11:54:58.572218,-8,-12,-10,-7,2019-01-01 05.30.15.000000 AM,16310,0,0.004143550992012024,0.0029272474348545074,0.9949512481689453,0.2953575849533081,-0.4396030902862549,0.7479984760284424
2022-07-13 11:54:58.593213,-8,-12,-10,-7,2019-01-01 05.30.15.000000 AM,16321,0,-6.839632987976074e-06,0.0021948255598545074,0.9915332794189453,0.18848729133605957,-0.3327328562736511,0.7174640893936157
2022-07-13 11:54:58.594214,-8,-12,-10,-7,2019-01-01 05.30.16.000000 AM,16331,0,0.001702144742012024,0.0024389661848545074,0.9915332794189453,0.3411591053009033,-0.3327328562736511,0.778532862663269
2022-07-13 11:54:58.594214,-8,-12,-10,-7,2019-01-01 05.30.16.000000 AM,16342,0,0.004875972867012024,0.0031713880598545074,0.9956836700439453,0.26482319831848145,-0.34800004959106445,0.778532862663269
2022-07-13 11:54:58.595214,-8,-12,-10,-7,2019-01-01 05.30.16.000000 AM,16352,0,-0.004645511507987976,0.0026831068098545074,0.9881153106689453,0.15795302391052246,-0.47013744711875916,0.9159374237060547
2022-07-13 11:54:58.643246,-8,-12,-10,-7,2019-01-01 05.30.16.000000 AM,16362,0,0.004387691617012024,-0.0075707994401454926,0.9932422637939453,0.1274186372756958,-0.4396030902862549,0.7327313423156738
2022-07-13 11:54:58.644216,-8,-12,-10,-7,2019-01-01 05.30.16.000000 AM,16373,0,0.0004814416170120239,0.0031713880598545074,0.9949512481689453,0.18848729133605957,-0.3174656927585602,0.7174640893936157
2022-07-13 11:54:58.644216,-8,-12,-10,-7,2019-01-01 05.30.16.000000 AM,16383,0,0.001213863492012024,0.0041479505598545074,0.9991016387939453,0.15795302391052246,-0.3632672131061554,0.8701359033584595
2022-07-13 11:54:58.645218,-8,-12,-10,-7,2019-01-01 05.30.16.000000 AM,16394,0,0.001213863492012024,0.0026831068098545074,0.9893360137939453,0.051082730293273926,-0.3174656927585602,0.9464718103408813
2022-07-13 11:54:58.690216,-8,-12,-10,-7,2019-01-01 05.30.16.000000 AM,16404,0,0.001946285367012024,-0.0036645494401454926,0.9886035919189453,0.14268577098846436,-0.3174656927585602,0.8243343830108643
2022-07-13 11:54:58.690216,-8,-12,-10,-7,2019-01-01 05.30.16.000000 AM,16414,0,-0.001715824007987976,0.0012182630598545074,0.9912891387939453,0.23428881168365479,-0.14952675998210907,0.9922733306884766
2022-07-13 11:54:58.691217,-8,-12,-10,-7,2019-01-01 05.30.16.000000 AM,16425,0,0.003166988492012024,-0.0068383775651454926,0.9861621856689453,0.2495560646057129,-0.4090687334537506,0.8701359033584595
2022-07-13 11:54:58.691217,-8,-12,-10,-7,2019-01-01 05.30.16.000000 AM,16435,0,-0.0002509802579879761,0.0039038099348545074,0.9915332794189453,0.20375454425811768,-0.47013744711875916,0.8396015167236328
2022-07-13 11:54:58.737216,-8,-12,-10,-7,2019-01-01 05.30.16.000000 AM,16446,0,0.00023730099201202393,-0.0007348619401454926,0.9915332794189453,0.08161711692810059,-0.3327328562736511,0.6258610486984253
2022-07-13 11:54:58.738218,-8,-12,-10,-7,2019-01-01 05.30.16.000000 AM,16456,0,0.001946285367012024,-0.0007348619401454926,0.9910449981689453,0.09688425064086914,-0.42433592677116394,0.8701359033584595
2022-07-13 11:54:58.738218,-8,-12,-10,-7,2019-01-01 05.30.16.000000 AM,16467,0,0.004387691617012024,0.0026831068098545074,0.9805469512939453,0.08161711692810059,-0.4396030902862549,0.5953267812728882
2022-07-13 11:54:58.739214,-8,-12,-10,-7,2019-01-01 05.30.16.000000 AM,16477,0,0.002434566617012024,-0.0034204088151454926,0.9898242950439453,0.15795302391052246,-0.2716641426086426,0.7479984760284424
2022-07-13 11:54:58.739214,-8,-12,-10,-7,2019-01-01 05.30.16.000000 AM,16487,0,-0.001471683382987976,-0.0012231431901454926,0.9910449981689453,0.051082730293273926,-0.14952675998210907,0.7632657289505005
2022-07-13 11:54:58.799216,-8,-12,-10,-7,2019-01-01 05.30.16.000000 AM,16498,0,-0.001471683382987976,0.0043920911848545074,0.9959278106689453,0.20375454425811768,-0.3632672131061554,0.8090672492980957
2022-07-13 11:54:58.799216,-8,-12,-10,-7,2019-01-01 05.30.16.000000 AM,16508,0,0.003899410367012024,0.0012182630598545074,0.9898242950439453,0.18848729133605957,-0.5006717443466187,0.7479984760284424
2022-07-13 11:54:58.800214,-8,-12,-10,-7,2019-01-01 05.30.16.000000 AM,16519,0,0.001946285367012024,0.0026831068098545074,0.9934864044189453,0.18848729133605957,-0.42433592677116394,0.8243343830108643
2022-07-13 11:54:58.800214,-8,-12,-10,-7,2019-01-01 05.30.16.000000 AM,16529,0,0.003899410367012024,0.0039038099348545074,0.9908008575439453,0.09688425064086914,-0.5464732646942139,0.778532862663269
2022-07-13 11:54:58.814218,-8,-12,-10,-7,2019-01-01 05.30.16.000000 AM,16539,0,0.002434566617012024,0.0014624036848545074,0.9915332794189453,0.2953575849533081,-0.2869313359260559,0.778532862663269
2022-07-13 11:54:58.814218,-8,-12,-10,-7,2019-01-01 05.30.16.000000 AM,16550,0,0.002678707242012024,0.0034155286848545074,0.9866504669189453,0.18848729133605957,-0.25639697909355164,0.7479984760284424
2022-07-13 11:54:58.815217,-8,-12,-10,-7,2019-01-01 05.30.16.000000 AM,16560,0,0.002190425992012024,-0.0029321275651454926,0.9920215606689453,0.14268577098846436,-0.2869313359260559,0.7327313423156738
2022-07-13 11:54:58.815217,-8,-12,-10,-7,2019-01-01 05.30.16.000000 AM,16571,0,0.00023730099201202393,0.0012182630598545074,0.9854297637939453,0.18848729133605957,-0.2869313359260559,0.7021969556808472
2022-07-13 11:54:58.857247,-8,-12,-10,-7,2019-01-01 05.30.16.000000 AM,16581,0,-0.000983402132987976,-0.0024438463151454926,0.9915332794189453,0.15795302391052246,-0.30219849944114685,0.9312045574188232
2022-07-13 11:54:58.858218,-8,-12,-10,-7,2019-01-01 05.30.16.000000 AM,16591,0,-0.001715824007987976,0.0051245130598545074,0.9861621856689453,0.1274186372756958,-0.30219849944114685,0.885403037071228
2022-07-13 11:54:58.858218,-8,-12,-10,-7,2019-01-01 05.30.16.000000 AM,16602,0,0.002922847867012024,0.0039038099348545074,0.9837207794189453,0.14268577098846436,-0.25639697909355164,0.8548687696456909
2022-07-13 11:54:58.858218,-8,-12,-10,-7,2019-01-01 05.30.16.000000 AM,16612,0,-0.002448245882987976,0.0031713880598545074,0.9991016387939453,0.2495560646057129,-0.47013744711875916,0.7479984760284424
2022-07-13 11:54:58.907216,-8,-12,-10,-7,2019-01-01 05.30.16.000000 AM,16623,0,0.001213863492012024,-0.0048852525651454926,0.9883594512939453,0.21902167797088623,-0.3327328562736511,0.8701359033584595
2022-07-13 11:54:58.908216,-8,-12,-10,-7,2019-01-01 05.30.16.000000 AM,16633,0,0.002434566617012024,0.0024389661848545074,0.9917774200439453,0.15795302391052246,-0.2869313359260559,0.656395435333252
2022-07-13 11:54:58.908216,-8,-12,-10,-7,2019-01-01 05.30.16.000000 AM,16644,0,0.005852535367012024,0.0009741224348545074,0.9937305450439453,0.09688425064086914,-0.3174656927585602,0.778532862663269
2022-07-13 11:54:58.909216,-8,-12,-10,-7,2019-01-01 05.30.16.000000 AM,16654,0,0.001213863492012024,0.0068334974348545074,0.9898242950439453,0.21902167797088623,-0.5464732646942139,0.7479984760284424
2022-07-13 11:54:58.961218,-8,-12,-10,-7,2019-01-01 05.30.16.000000 AM,16664,0,-0.007819339632987976,-2.4400651454925537e-06,0.9854297637939453,0.3564262390136719,-0.39380156993865967,0.885403037071228
2022-07-13 11:54:58.961218,-8,-12,-10,-7,2019-01-01 05.30.16.000000 AM,16675,0,0.005852535367012024,0.0007299818098545074,0.9903125762939453,0.26482319831848145,-0.37853437662124634,0.7327313423156738
2022-07-13 11:54:58.962216,-8,-12,-10,-7,2019-01-01 05.30.16.000000 AM,16685,0,0.0007255822420120239,-0.0034204088151454926,0.9893360137939453,0.06634986400604248,-0.34800004959106445,1.0075404644012451
2022-07-13 11:54:58.963215,-8,-12,-10,-7,2019-01-01 05.30.16.000000 AM,16696,0,0.002922847867012024,0.0036596693098545074,0.9888477325439453,0.20375454425811768,-0.3327328562736511,0.6869298219680786
2022-07-13 11:54:58.988218,-8,-12,-10,-7,2019-01-01 05.30.16.000000 AM,16706,0,0.002678707242012024,0.0056127943098545074,0.9915332794189453,0.2495560646057129,-0.42433592677116394,0.7021969556808472
2022-07-13 11:54:58.989215,-8,-12,-10,-7,2019-01-01 05.30.16.000000 AM,16716,0,0.002190425992012024,-0.0073266588151454926,0.9873828887939453,0.18848729133605957,-0.1647939234972,0.7327313423156738
2022-07-13 11:54:58.990217,-8,-12,-10,-7,2019-01-01 05.30.16.000000 AM,16727,0,-0.0002509802579879761,0.0061010755598545074,0.9886035919189453,0.2953575849533081,-0.30219849944114685,0.7632657289505005
2022-07-13 11:54:58.990217,-8,-12,-10,-7,2019-01-01 05.30.16.000000 AM,16737,0,0.00023730099201202393,-0.0021997056901454926,0.9927539825439453,0.15795302391052246,-0.21059545874595642,0.7327313423156738
2022-07-13 11:54:59.028219,-8,-12,-10,-7,2019-01-01 05.30.16.000000 AM,16748,0,0.0007255822420120239,0.0041479505598545074,0.9856739044189453,0.2495560646057129,-0.30219849944114685,0.9770060777664185
2022-07-13 11:54:59.029215,-8,-12,-10,-7,2019-01-01 05.30.16.000000 AM,16758,0,0.004875972867012024,-0.0021997056901454926,0.9898242950439453,0.18848729133605957,-0.34800004959106445,0.6869298219680786
2022-07-13 11:54:59.030215,-8,-12,-10,-7,2019-01-01 05.30.16.000000 AM,16768,0,-0.001227542757987976,-0.0007348619401454926,0.9937305450439453,0.06634986400604248,-0.2411298155784607,0.8243343830108643
2022-07-13 11:54:59.031219,-8,-12,-10,-7,2019-01-01 05.30.16.000000 AM,16779,0,-0.004645511507987976,0.0029272474348545074,0.9883594512939453,0.1274186372756958,-0.14952675998210907,0.778532862663269
2022-07-13 11:54:59.084214,-8,-12,-10,-7,2019-01-01 05.30.16.000000 AM,16789,0,-0.004157230257987976,0.0019506849348545074,0.9927539825439453,0.2495560646057129,-0.34800004959106445,0.7479984760284424
2022-07-13 11:54:59.085216,-8,-12,-10,-7,2019-01-01 05.30.16.000000 AM,16800,0,-0.002204105257987976,-0.0026879869401454926,0.9893360137939453,0.15795302391052246,-0.3632672131061554,0.7174640893936157
2022-07-13 11:54:59.085216,-8,-12,-10,-7,2019-01-01 05.30.16.000000 AM,16810,0,0.001458004117012024,0.0036596693098545074,0.9939746856689453,0.1121513843536377,-0.4548702538013458,0.778532862663269
2022-07-13 11:54:59.086215,-8,-12,-10,-7,2019-01-01 05.30.16.000000 AM,16821,0,0.007561519742012024,0.0039038099348545074,0.9878711700439453,0.09688425064086914,-0.4090687334537506,0.8243343830108643
2022-07-13 11:54:59.112218,-8,-12,-10,-7,2019-01-01 05.30.16.000000 AM,16831,0,0.003655269742012024,-0.0007348619401454926,0.9954395294189453,0.18848729133605957,-0.37853437662124634,0.8090672492980957
2022-07-13 11:54:59.113218,-8,-12,-10,-7,2019-01-01 05.30.16.000000 AM,16841,0,0.004387691617012024,0.0043920911848545074,0.9961719512939453,0.21902167797088623,-0.2411298155784607,0.7479984760284424
2022-07-13 11:54:59.114220,-8,-12,-10,-7,2019-01-01 05.30.16.000000 AM,16852,0,0.007561519742012024,-0.00024658069014549255,0.9817676544189453,0.14268577098846436,-0.4090687334537506,0.9617389440536499
2022-07-13 11:54:59.115218,-8,-12,-10,-7,2019-01-01 05.30.16.000000 AM,16862,0,0.001946285367012024,-0.0024438463151454926,0.9915332794189453,0.21902167797088623,-0.4396030902862549,0.7632657289505005
2022-07-13 11:54:59.166218,-8,-12,-10,-7,2019-01-01 05.30.16.000000 AM,16873,0,0.003411129117012024,0.0070776380598545074,0.9844532012939453,0.14268577098846436,-0.4396030902862549,0.7327313423156738
2022-07-13 11:54:59.166218,-8,-12,-10,-7,2019-01-01 05.30.16.000000 AM,16883,0,0.002922847867012024,-0.0048852525651454926,0.9898242950439453,0.03581559658050537,-0.3632672131061554,0.6869298219680786
2022-07-13 11:54:59.167217,-8,-12,-10,-7,2019-01-01 05.30.16.000000 AM,16893,0,0.001702144742012024,-0.0019555650651454926,0.9876270294189453,0.17322015762329102,-0.4090687334537506,0.7479984760284424
2022-07-13 11:54:59.168217,-8,-12,-10,-7,2019-01-01 05.30.16.000000 AM,16904,0,0.005608394742012024,-0.0021997056901454926,0.9925098419189453,0.15795302391052246,-0.30219849944114685,0.9312045574188232
2022-07-13 11:54:59.201397,-8,-12,-10,-7,2019-01-01 05.30.16.000000 AM,16914,0,0.001213863492012024,-0.0034204088151454926,0.9817676544189453,0.21902167797088623,-0.5464732646942139,0.7174640893936157
2022-07-13 11:54:59.201397,-8,-12,-10,-7,2019-01-01 05.30.16.000000 AM,16925,0,0.004875972867012024,-0.0029321275651454926,0.9864063262939453,0.21902167797088623,-0.22586262226104736,0.7479984760284424
2022-07-13 11:54:59.202396,-8,-12,-10,-7,2019-01-01 05.30.16.000000 AM,16935,0,-0.003424808382987976,-0.0026879869401454926,0.9915332794189453,0.1121513843536377,-0.2869313359260559,0.8396015167236328
2022-07-13 11:54:59.202396,-8,-12,-10,-7,2019-01-01 05.30.16.000000 AM,16945,0,0.006096675992012024,0.0017065443098545074,0.9973926544189453,0.15795302391052246,-0.4396030902862549,0.7937999963760376
2022-07-13 11:54:59.226434,-8,-12,-10,-7,2019-01-01 05.30.16.000000 AM,16956,0,0.005120113492012024,0.0017065443098545074,0.9890918731689453,0.23428881168365479,-0.3174656927585602,0.778532862663269
2022-07-13 11:54:59.227438,-8,-12,-10,-7,2019-01-01 05.30.16.000000 AM,16966,0,-0.006110355257987976,0.0046362318098545074,0.9893360137939453,0.17322015762329102,-0.30219849944114685,0.8243343830108643
2022-07-13 11:54:59.227438,-8,-12,-10,-7,2019-01-01 05.30.16.000000 AM,16977,0,-0.004645511507987976,-0.0056176744401454926,0.9886035919189453,0.15795302391052246,-0.22586262226104736,0.8548687696456909
2022-07-13 11:54:59.228400,-8,-12,-10,-7,2019-01-01 05.30.16.000000 AM,16987,0,-0.001471683382987976,0.0043920911848545074,0.9859180450439453,0.23428881168365479,-0.2869313359260559,0.8701359033584595
2022-07-13 11:54:59.282274,-8,-12,-10,-7,2019-01-01 05.30.16.000000 AM,16998,0,-0.002204105257987976,0.0019506849348545074,0.9861621856689453,0.3564262390136719,-0.47013744711875916,0.7174640893936157
2022-07-13 11:54:59.283271,-8,-12,-10,-7,2019-01-01 05.30.16.000000 AM,17008,0,0.003655269742012024,0.0031713880598545074,0.9944629669189453,0.18848729133605957,-0.4090687334537506,0.7632657289505005
2022-07-13 11:54:59.285284,-8,-12,-10,-7,2019-01-01 05.30.16.000000 AM,17018,0,0.0007255822420120239,0.0051245130598545074,0.9920215606689453,0.15795302391052246,-0.4548702538013458,0.8090672492980957
2022-07-13 11:54:59.285284,-8,-12,-10,-7,2019-01-01 05.30.16.000000 AM,17029,0,-0.0007392615079879761,0.0021948255598545074,0.9886035919189453,0.06634986400604248,-0.37853437662124634,0.7021969556808472
2022-07-13 11:54:59.322352,-8,-12,-10,-7,2019-01-01 05.30.16.000000 AM,17039,0,0.002190425992012024,-0.0007348619401454926,0.9905567169189453,0.08161711692810059,-0.3632672131061554,1.0686092376708984
2022-07-13 11:54:59.323352,-8,-12,-10,-7,2019-01-01 05.30.16.000000 AM,17050,0,0.00023730099201202393,0.0056127943098545074,0.9969043731689453,0.1274186372756958,-0.2869313359260559,0.7937999963760376
2022-07-13 11:54:59.323352,-8,-12,-10,-7,2019-01-01 05.30.16.000000 AM,17060,0,-0.003913089632987976,-0.0007348619401454926,0.9817676544189453,0.1274186372756958,-0.2716641426086426,0.9159374237060547
2022-07-13 11:54:59.324350,-8,-12,-10,-7,2019-01-01 05.30.16.000000 AM,17070,0,-0.004401370882987976,0.0039038099348545074,0.9925098419189453,0.14268577098846436,-0.34800004959106445,0.9006702899932861
2022-07-13 11:54:59.375351,-8,-12,-10,-7,2019-01-01 05.30.16.000000 AM,17081,0,0.001213863492012024,0.0053686536848545074,0.9932422637939453,0.21902167797088623,-0.4090687334537506,0.9006702899932861
2022-07-13 11:54:59.376352,-8,-12,-10,-7,2019-01-01 05.30.16.000000 AM,17091,0,0.001946285367012024,-0.0021997056901454926,0.9937305450439453,0.21902167797088623,-0.4090687334537506,0.7479984760284424
2022-07-13 11:54:59.376352,-8,-12,-10,-7,2019-01-01 05.30.16.000000 AM,17102,0,0.001213863492012024,-0.0024438463151454926,0.9883594512939453,0.18848729133605957,-0.3174656927585602,0.9006702899932861
2022-07-13 11:54:59.377353,-8,-12,-10,-7,2019-01-01 05.30.16.000000 AM,17112,0,0.0009697228670120239,-0.0043969713151454926,0.9883594512939453,0.28009033203125,-0.4090687334537506,0.8396015167236328
2022-07-13 11:54:59.421351,-8,-12,-10,-7,2019-01-01 05.30.16.000000 AM,17122,0,-0.002204105257987976,-0.0009790025651454926,0.9934864044189453,0.21902167797088623,-0.2411298155784607,0.9770060777664185
2022-07-13 11:54:59.421351,-8,-12,-10,-7,2019-01-01 05.30.16.000000 AM,17133,0,-0.001471683382987976,0.0026831068098545074,0.9868946075439453,0.15795302391052246,-0.4396030902862549,0.7937999963760376
2022-07-13 11:54:59.422352,-8,-12,-10,-7,2019-01-01 05.30.16.000000 AM,17143,0,-0.001227542757987976,0.0031713880598545074,0.9883594512939453,0.23428881168365479,-0.4090687334537506,0.8548687696456909
2022-07-13 11:54:59.422352,-8,-12,-10,-7,2019-01-01 05.30.16.000000 AM,17154,0,0.002190425992012024,0.0039038099348545074,0.9876270294189453,0.21902167797088623,-0.25639697909355164,0.7174640893936157
2022-07-13 11:54:59.450351,-8,-12,-10,-7,2019-01-01 05.30.16.000000 AM,17164,0,0.003655269742012024,0.0012182630598545074,0.9842090606689453,0.21902167797088623,-0.14952675998210907,0.8090672492980957
2022-07-13 11:54:59.450351,-8,-12,-10,-7,2019-01-01 05.30.16.000000 AM,17175,0,-0.0007392615079879761,-0.0058618150651454926,0.9859180450439453,0.20375454425811768,-0.2869313359260559,0.7632657289505005
2022-07-13 11:54:59.452355,-8,-12,-10,-7,2019-01-01 05.30.16.000000 AM,17185,0,-6.839632987976074e-06,0.0009741224348545074,0.9988574981689453,0.2495560646057129,-0.2411298155784607,0.885403037071228
2022-07-13 11:54:59.452355,-8,-12,-10,-7,2019-01-01 05.30.16.000000 AM,17195,0,-0.005377933382987976,0.00048584118485450745,1.0000782012939453,0.051082730293273926,-0.3327328562736511,0.6411283016204834
2022-07-13 11:54:59.490353,-8,-12,-10,-7,2019-01-01 05.30.16.000000 AM,17206,0,-0.002448245882987976,0.0026831068098545074,0.9893360137939453,0.18848729133605957,-0.4396030902862549,0.8396015167236328
2022-07-13 11:54:59.490353,-8,-12,-10,-7,2019-01-01 05.30.16.000000 AM,17216,0,-0.002448245882987976,-0.0029321275651454926,0.9805469512939453,0.005281209945678711,-0.3327328562736511,0.8090672492980957
2022-07-13 11:54:59.490353,-8,-12,-10,-7,2019-01-01 05.30.16.000000 AM,17227,0,0.0004814416170120239,-0.0048852525651454926,0.9854297637939453,0.06634986400604248,-0.4090687334537506,0.7479984760284424
2022-07-13 11:54:59.491353,-8,-12,-10,-7,2019-01-01 05.30.16.000000 AM,17237,0,0.004387691617012024,-0.0024438463151454926,0.9925098419189453,0.09688425064086914,-0.19532828032970428,0.7632657289505005
2022-07-13 11:54:59.543351,-8,-12,-10,-7,2019-01-01 05.30.16.000000 AM,17247,0,0.00023730099201202393,-0.0048852525651454926,0.9903125762939453,0.28009033203125,-0.2411298155784607,0.8243343830108643
2022-07-13 11:54:59.544351,-8,-12,-10,-7,2019-01-01 05.30.16.000000 AM,17258,0,0.003899410367012024,0.0039038099348545074,0.9861621856689453,0.21902167797088623,-0.19532828032970428,0.7632657289505005
2022-07-13 11:54:59.544351,-8,-12,-10,-7,2019-01-01 05.30.16.000000 AM,17268,0,0.004631832242012024,-0.0004907213151454926,0.9920215606689453,0.21902167797088623,-0.5464732646942139,0.7174640893936157
2022-07-13 11:54:59.545351,-8,-12,-10,-7,2019-01-01 05.30.16.000000 AM,17279,0,0.002678707242012024,-2.4400651454925537e-06,0.9846973419189453,0.1274186372756958,-0.47013744711875916,0.8396015167236328
2022-07-13 11:54:59.591352,-8,-12,-10,-7,2019-01-01 05.30.16.000000 AM,17289,0,0.005120113492012024,-0.0024438463151454926,0.9881153106689453,0.14268577098846436,-0.30219849944114685,0.7937999963760376
2022-07-13 11:54:59.591352,-8,-12,-10,-7,2019-01-01 05.30.16.000000 AM,17299,0,0.003166988492012024,0.0039038099348545074,0.9969043731689453,0.18848729133605957,-0.4090687334537506,0.778532862663269
2022-07-13 11:54:59.592352,-8,-12,-10,-7,2019-01-01 05.30.16.000000 AM,17310,0,0.003166988492012024,-0.0021997056901454926,0.9849414825439453,0.21902167797088623,-0.42433592677116394,0.6716625690460205
2022-07-13 11:54:59.592352,-8,-12,-10,-7,2019-01-01 05.30.16.000000 AM,17320,0,-0.0004951208829879761,-0.0014672838151454926,0.9981250762939453,0.051082730293273926,-0.3327328562736511,0.885403037071228
2022-07-13 11:54:59.606352,-8,-12,-10,-7,2019-01-01 05.30.17.000000 AM,17331,0,0.001702144742012024,0.0068334974348545074,0.9951953887939453,0.20375454425811768,-0.47013744711875916,0.8548687696456909
2022-07-13 11:54:59.606352,-8,-12,-10,-7,2019-01-01 05.30.17.000000 AM,17341,0,-0.000983402132987976,0.0026831068098545074,0.9898242950439453,0.21902167797088623,-0.2411298155784607,0.8396015167236328
2022-07-13 11:54:59.607352,-8,-12,-10,-7,2019-01-01 05.30.17.000000 AM,17352,0,0.002190425992012024,-0.0029321275651454926,0.9929981231689453,0.1121513843536377,-0.3174656927585602,0.8396015167236328
2022-07-13 11:54:59.607352,-8,-12,-10,-7,2019-01-01 05.30.17.000000 AM,17362,0,0.003166988492012024,-0.0009790025651454926,0.9893360137939453,0.14268577098846436,-0.37853437662124634,0.8396015167236328
2022-07-13 11:54:59.658350,-8,-12,-10,-7,2019-01-01 05.30.17.000000 AM,17372,0,-0.0007392615079879761,0.0031713880598545074,0.9878711700439453,0.2953575849533081,-0.34800004959106445,0.7937999963760376
2022-07-13 11:54:59.659351,-8,-12,-10,-7,2019-01-01 05.30.17.000000 AM,17383,0,-0.0002509802579879761,0.0026831068098545074,0.9820117950439453,0.08161711692810059,-0.34800004959106445,0.7937999963760376
2022-07-13 11:54:59.659351,-8,-12,-10,-7,2019-01-01 05.30.17.000000 AM,17393,0,0.005608394742012024,-2.4400651454925537e-06,0.9886035919189453,0.1274186372756958,-0.4090687334537506,0.7021969556808472
2022-07-13 11:54:59.660352,-8,-12,-10,-7,2019-01-01 05.30.17.000000 AM,17404,0,0.005608394742012024,0.0053686536848545074,0.9883594512939453,0.2495560646057129,-0.4548702538013458,0.8396015167236328
2022-07-13 11:54:59.712351,-8,-12,-10,-7,2019-01-01 05.30.17.000000 AM,17414,0,-0.001715824007987976,0.0034155286848545074,0.9837207794189453,0.1121513843536377,-0.30219849944114685,0.7937999963760376
2022-07-13 11:54:59.713351,-8,-12,-10,-7,2019-01-01 05.30.17.000000 AM,17424,0,0.003166988492012024,0.0019506849348545074,0.9964160919189453,0.21902167797088623,-0.5006717443466187,0.9159374237060547
2022-07-13 11:54:59.713351,-8,-12,-10,-7,2019-01-01 05.30.17.000000 AM,17435,0,0.003166988492012024,0.0039038099348545074,0.9927539825439453,0.09688425064086914,-0.2411298155784607,0.7327313423156738
2022-07-13 11:54:59.714354,-8,-12,-10,-7,2019-01-01 05.30.17.000000 AM,17445,0,0.003899410367012024,-0.00024658069014549255,1.0042285919189453,0.09688425064086914,-0.3327328562736511,0.6869298219680786
2022-07-13 11:54:59.726351,-8,-12,-10,-7,2019-01-01 05.30.17.000000 AM,17456,0,0.003655269742012024,0.0036596693098545074,0.9956836700439453,0.2495560646057129,-0.5006717443466187,0.7174640893936157
2022-07-13 11:54:59.726351,-8,-12,-10,-7,2019-01-01 05.30.17.000000 AM,17466,0,0.0009697228670120239,0.0031713880598545074,0.9878711700439453,0.2953575849533081,-0.47013744711875916,0.7937999963760376
2022-07-13 11:54:59.727351,-8,-12,-10,-7,2019-01-01 05.30.17.000000 AM,17476,0,-6.839632987976074e-06,0.0014624036848545074,0.9905567169189453,0.1121513843536377,-0.2716641426086426,0.7174640893936157
2022-07-13 11:54:59.727351,-8,-12,-10,-7,2019-01-01 05.30.17.000000 AM,17487,0,-6.839632987976074e-06,-0.0012231431901454926,0.9832324981689453,0.15795302391052246,-0.25639697909355164,0.7021969556808472
2022-07-13 11:54:59.780351,-8,-12,-10,-7,2019-01-01 05.30.17.000000 AM,17497,0,-0.002692386507987976,0.0026831068098545074,0.9932422637939453,0.09688425064086914,-0.4090687334537506,0.8090672492980957
2022-07-13 11:54:59.780351,-8,-12,-10,-7,2019-01-01 05.30.17.000000 AM,17508,0,0.004143550992012024,0.0014624036848545074,0.9900684356689453,0.051082730293273926,-0.30219849944114685,0.9312045574188232
2022-07-13 11:54:59.781353,-8,-12,-10,-7,2019-01-01 05.30.17.000000 AM,17518,0,0.001702144742012024,-2.4400651454925537e-06,0.9883594512939453,0.15795302391052246,-0.37853437662124634,0.8396015167236328
2022-07-13 11:54:59.781353,-8,-12,-10,-7,2019-01-01 05.30.17.000000 AM,17529,0,-0.0007392615079879761,0.0024389661848545074,0.9873828887939453,0.2495560646057129,-0.21059545874595642,0.7327313423156738
2022-07-13 11:54:59.833352,-8,-12,-10,-7,2019-01-01 05.30.17.000000 AM,17539,0,0.005608394742012024,-0.0036645494401454926,0.9927539825439453,0.18848729133605957,-0.34800004959106445,0.7937999963760376
2022-07-13 11:54:59.834355,-8,-12,-10,-7,2019-01-01 05.30.17.000000 AM,17549,0,0.003899410367012024,0.0009741224348545074,0.9905567169189453,0.14268577098846436,-0.25639697909355164,0.7632657289505005
2022-07-13 11:54:59.835352,-8,-12,-10,-7,2019-01-01 05.30.17.000000 AM,17560,0,-0.0002509802579879761,-0.0029321275651454926,0.9866504669189453,0.18848729133605957,-0.25639697909355164,0.778532862663269
2022-07-13 11:54:59.836353,-8,-12,-10,-7,2019-01-01 05.30.17.000000 AM,17570,0,0.003655269742012024,0.0026831068098545074,0.9888477325439453,0.20375454425811768,-0.3174656927585602,0.7327313423156738
2022-07-13 11:54:59.875351,-8,-12,-10,-7,2019-01-01 05.30.17.000000 AM,17581,0,0.00023730099201202393,-0.0029321275651454926,0.9851856231689453,0.14268577098846436,-0.22586262226104736,0.885403037071228
2022-07-13 11:54:59.876351,-8,-12,-10,-7,2019-01-01 05.30.17.000000 AM,17591,0,0.003166988492012024,-0.0029321275651454926,0.9859180450439453,0.2953575849533081,-0.34800004959106445,0.7327313423156738
2022-07-13 11:54:59.876351,-8,-12,-10,-7,2019-01-01 05.30.17.000000 AM,17601,0,0.0009697228670120239,0.0043920911848545074,0.9807910919189453,0.1121513843536377,-0.18006110191345215,0.8396015167236328
2022-07-13 11:54:59.877351,-8,-12,-10,-7,2019-01-01 05.30.17.000000 AM,17612,0,0.002190425992012024,-0.0026879869401454926,0.9959278106689453,0.1274186372756958,-0.39380156993865967,0.8090672492980957
2022-07-13 11:54:59.895352,-8,-12,-10,-7,2019-01-01 05.30.17.000000 AM,17622,0,-0.004401370882987976,-0.0017114244401454926,0.9893360137939453,0.21902167797088623,-0.3632672131061554,0.9006702899932861
2022-07-13 11:54:59.895352,-8,-12,-10,-7,2019-01-01 05.30.17.000000 AM,17633,0,0.007317379117012024,-0.00024658069014549255,0.9910449981689453,0.1274186372756958,-0.4090687334537506,0.7327313423156738
2022-07-13 11:54:59.896354,-8,-12,-10,-7,2019-01-01 05.30.17.000000 AM,17643,0,0.004631832242012024,0.0024389661848545074,0.9878711700439453,0.21902167797088623,-0.30219849944114685,0.8701359033584595
2022-07-13 11:54:59.896354,-8,-12,-10,-7,2019-01-01 05.30.17.000000 AM,17653,0,-0.000983402132987976,-0.0031762681901454926,0.9910449981689453,0.09688425064086914,-0.47013744711875916,0.8548687696456909
2022-07-13 11:54:59.897359,-8,-12,-10,-7,2019-01-01 05.30.17.000000 AM,17664,0,0.005120113492012024,-0.0007348619401454926,0.9900684356689453,0.2953575849533081,-0.30219849944114685,0.8090672492980957
2022-07-13 11:54:59.950353,-8,-12,-10,-7,2019-01-01 05.30.17.000000 AM,17674,0,0.007073238492012024,-0.0046411119401454926,0.9883594512939453,0.2953575849533081,-0.3632672131061554,0.8243343830108643
2022-07-13 11:54:59.950353,-8,-12,-10,-7,2019-01-01 05.30.17.000000 AM,17685,0,0.006584957242012024,-0.0068383775651454926,0.9895801544189453,0.2953575849533081,-0.2411298155784607,0.8090672492980957
2022-07-13 11:54:59.951355,-8,-12,-10,-7,2019-01-01 05.30.17.000000 AM,17695,0,0.002922847867012024,-0.0004907213151454926,0.9908008575439453,0.18848729133605957,-0.3632672131061554,0.7327313423156738
2022-07-13 11:54:59.951355,-8,-12,-10,-7,2019-01-01 05.30.17.000000 AM,17706,0,0.0004814416170120239,-0.0026879869401454926,0.9888477325439453,0.14268577098846436,-0.3632672131061554,0.7327313423156738
2022-07-13 11:55:00.003355,-8,-12,-10,-7,2019-01-01 05.30.17.000000 AM,17716,0,-0.002448245882987976,0.0017065443098545074,0.9937305450439453,0.26482319831848145,-0.3174656927585602,0.778532862663269
2022-07-13 11:55:00.004353,-8,-12,-10,-7,2019-01-01 05.30.17.000000 AM,17726,0,-0.002692386507987976,-0.0063500963151454926,0.9900684356689453,0.18848729133605957,-0.3174656927585602,0.6869298219680786
2022-07-13 11:55:00.005352,-8,-12,-10,-7,2019-01-01 05.30.17.000000 AM,17737,0,0.002434566617012024,0.0036596693098545074,0.9947071075439453,0.15795302391052246,-0.37853437662124634,0.778532862663269
2022-07-13 11:55:00.005352,-8,-12,-10,-7,2019-01-01 05.30.17.000000 AM,17747,0,0.0007255822420120239,-0.0046411119401454926,0.9815235137939453,0.2495560646057129,-0.22586262226104736,0.656395435333252
2022-07-13 11:55:00.043350,-8,-12,-10,-7,2019-01-01 05.30.17.000000 AM,17758,0,0.002434566617012024,0.0043920911848545074,0.9929981231689453,0.26482319831848145,-0.4548702538013458,0.6869298219680786
2022-07-13 11:55:00.044351,-8,-12,-10,-7,2019-01-01 05.30.17.000000 AM,17768,0,0.001702144742012024,0.0021948255598545074,0.9912891387939453,0.1121513843536377,-0.3632672131061554,0.7632657289505005
2022-07-13 11:55:00.045353,-8,-12,-10,-7,2019-01-01 05.30.17.000000 AM,17778,0,0.001946285367012024,-0.0046411119401454926,0.9861621856689453,0.08161711692810059,-0.14952675998210907,0.6869298219680786
2022-07-13 11:55:00.045353,-8,-12,-10,-7,2019-01-01 05.30.17.000000 AM,17789,0,-0.003913089632987976,0.0009741224348545074,0.9920215606689453,0.051082730293273926,-0.18006110191345215,0.656395435333252
2022-07-13 11:55:00.097352,-8,-12,-10,-7,2019-01-01 05.30.17.000000 AM,17799,0,0.001213863492012024,0.0017065443098545074,0.9861621856689453,0.17322015762329102,-0.3174656927585602,0.9006702899932861
2022-07-13 11:55:00.098355,-8,-12,-10,-7,2019-01-01 05.30.17.000000 AM,17810,0,-0.006598636507987976,0.0017065443098545074,0.9866504669189453,0.15795302391052246,-0.1647939234972,0.885403037071228
2022-07-13 11:55:00.099353,-8,-12,-10,-7,2019-01-01 05.30.17.000000 AM,17820,0,-0.001227542757987976,0.0058569349348545074,0.9798145294189453,0.18848729133605957,-0.4854046404361725,0.9006702899932861
2022-07-13 11:55:00.099353,-8,-12,-10,-7,2019-01-01 05.30.17.000000 AM,17830,0,0.004143550992012024,-0.0053735338151454926,0.9964160919189453,0.26482319831848145,-0.37853437662124634,0.7479984760284424
2022-07-13 11:55:00.111352,-8,-12,-10,-7,2019-01-01 05.30.17.000000 AM,17841,0,-0.001715824007987976,-0.0026879869401454926,0.9932422637939453,0.23428881168365479,-0.3327328562736511,0.8396015167236328
2022-07-13 11:55:00.111352,-8,-12,-10,-7,2019-01-01 05.30.17.000000 AM,17851,0,-0.003424808382987976,-0.0029321275651454926,0.9878711700439453,0.09688425064086914,-0.4548702538013458,0.7327313423156738
2022-07-13 11:55:00.112352,-8,-12,-10,-7,2019-01-01 05.30.17.000000 AM,17862,0,0.001946285367012024,-0.0058618150651454926,0.9898242950439453,0.20375454425811768,-0.3174656927585602,0.6716625690460205
2022-07-13 11:55:00.112352,-8,-12,-10,-7,2019-01-01 05.30.17.000000 AM,17872,0,0.0009697228670120239,0.0031713880598545074,0.9839649200439453,0.1274186372756958,-0.39380156993865967,0.7937999963760376
2022-07-13 11:55:00.163353,-8,-12,-10,-7,2019-01-01 05.30.17.000000 AM,17883,0,0.005364254117012024,-0.0036645494401454926,0.9934864044189453,0.28009033203125,-0.19532828032970428,0.8396015167236328
2022-07-13 11:55:00.164352,-8,-12,-10,-7,2019-01-01 05.30.17.000000 AM,17893,0,-0.003913089632987976,0.0019506849348545074,0.9927539825439453,0.20375454425811768,-0.2869313359260559,0.9312045574188232
2022-07-13 11:55:00.165371,-8,-12,-10,-7,2019-01-01 05.30.17.000000 AM,17903,0,-0.0004951208829879761,0.0009741224348545074,0.9959278106689453,0.1274186372756958,-0.2869313359260559,0.7632657289505005
2022-07-13 11:55:00.166352,-8,-12,-10,-7,2019-01-01 05.30.17.000000 AM,17914,0,0.0004814416170120239,-0.0014672838151454926,0.9878711700439453,0.2495560646057129,-0.4090687334537506,0.6716625690460205
2022-07-13 11:55:00.217351,-8,-12,-10,-7,2019-01-01 05.30.17.000000 AM,17924,0,0.002678707242012024,-0.0026879869401454926,0.9925098419189453,0.1274186372756958,-0.37853437662124634,0.778532862663269
