sys_time,ax,ay,az,gx,gy,gz,imu_time
2022-04-01 14:31:02.195163,-0.15459442138671875,-0.32073283195495605,0.9071738719940186,-0.10679638385772705,-0.08141404390335083,0.7104858160018921,2022-04-01 14:31:00.21287
2022-04-01 14:31:02.332232,0.10494756698608398,-0.335999995470047,0.6323647499084473,-0.10533154010772705,-0.07824021577835083,0.7129272222518921,2022-04-01 14:31:00.21830
2022-04-01 14:31:02.332232,0.1354818344116211,-0.3818015158176422,0.9529753923416138,-0.10874950885772705,-0.08458787202835083,0.7056030035018921,2022-04-01 14:31:00.22373
2022-04-01 14:31:02.332232,0.21181774139404297,-0.24439693987369537,0.7087006568908691,-0.09751904010772705,-0.08654099702835083,0.7073119878768921,2022-04-01 14:31:00.22916
2022-04-01 14:31:02.332232,0.2728865146636963,-0.3054656386375427,0.8003036975860596,-0.10240185260772705,-0.08385545015335083,0.7102416753768921,2022-04-01 14:31:00.23459
2022-04-01 14:31:02.332232,0.18128347396850586,-0.5192061066627502,0.8003036975860596,-0.10557568073272705,-0.08068162202835083,0.7046264410018921,2022-04-01 14:31:00.24002
2022-04-01 14:31:02.332232,0.08968043327331543,-0.3054656386375427,0.9377082586288452,-0.10874950885772705,-0.08556443452835083,0.7085326910018921,2022-04-01 14:31:00.24544
2022-04-01 14:31:02.332232,0.25761914253234863,-0.4886717200279236,0.693433403968811,-0.11070263385772705,-0.07408982515335083,0.7075561285018921,2022-04-01 14:31:00.25087
2022-04-01 14:31:02.332232,0.12021470069885254,-0.35126715898513794,0.7392349243164062,-0.10386669635772705,-0.07848435640335083,0.7148803472518921,2022-04-01 14:31:00.25630
2022-04-01 14:31:02.332232,0.08968043327331543,-0.4581373929977417,0.7239677906036377,-0.10215771198272705,-0.08458787202835083,0.6990112066268921,2022-04-01 14:31:00.26173
2022-04-01 14:31:02.332232,0.3492223024368286,-0.3054656386375427,0.9835097789764404,-0.10655224323272705,-0.08239060640335083,0.7073119878768921,2022-04-01 14:31:00.26716
2022-04-01 14:31:02.332232,0.15074896812438965,-0.18332824110984802,0.7850364446640015,-0.10679638385772705,-0.08434373140335083,0.7051147222518921,2022-04-01 14:31:00.27259
2022-04-01 14:31:02.332232,-0.0019228458404541016,-0.32073283195495605,0.8613723516464233,-0.10581982135772705,-0.08556443452835083,0.7080444097518921,2022-04-01 14:31:00.27802
2022-04-01 14:31:02.332232,0.10494756698608398,-0.10699236392974854,0.8308379650115967,-0.10899364948272705,-0.08434373140335083,0.7021850347518921,2022-04-01 14:31:00.28345
2022-04-01 14:31:02.332232,0.22708487510681152,-0.44287019968032837,0.7239677906036377,-0.10411083698272705,-0.08263474702835083,0.7070678472518921,2022-04-01 14:31:00.28887
2022-04-01 14:31:02.332232,0.22708487510681152,-0.4886717200279236,0.6476318836212158,-0.10557568073272705,-0.08776170015335083,0.7034057378768921,2022-04-01 14:31:00.29430
2022-04-01 14:31:02.332232,0.45609259605407715,-0.2901984751224518,0.693433403968811,-0.10313427448272705,-0.07677537202835083,0.7087768316268921,2022-04-01 14:31:00.29973
2022-04-01 14:31:02.332232,0.25761914253234863,-0.2901984751224518,0.8308379650115967,-0.10289013385772705,-0.07750779390335083,0.7087768316268921,2022-04-01 14:31:00.30516
2022-04-01 14:31:02.332232,0.05914592742919922,-0.3818015158176422,0.6476318836212158,-0.10630810260772705,-0.07848435640335083,0.7104858160018921,2022-04-01 14:31:00.31059
2022-04-01 14:31:02.332232,0.3797566890716553,-0.3054656386375427,0.6170976161956787,-0.10874950885772705,-0.08336716890335083,0.7034057378768921,2022-04-01 14:31:00.31602
2022-04-01 14:31:02.332232,0.05914592742919922,-0.4276030659675598,0.7239677906036377,-0.10191357135772705,-0.09117966890335083,0.7063354253768921,2022-04-01 14:31:00.32145
2022-04-01 14:31:02.332232,0.1660161018371582,-0.2138625979423523,0.7545021772384644,-0.10704052448272705,-0.08239060640335083,0.7009643316268921,2022-04-01 14:31:00.32688
2022-04-01 14:31:02.332232,0.22708487510681152,-0.22912976145744324,0.8003036975860596,-0.10289013385772705,-0.07946091890335083,0.7097533941268921,2022-04-01 14:31:00.33231
2022-04-01 14:31:02.332232,0.12021470069885254,-0.36653435230255127,0.9377082586288452,-0.10679638385772705,-0.08702927827835083,0.7078002691268921,2022-04-01 14:31:00.33773
2022-04-01 14:31:02.332232,0.1660161018371582,-0.2596641182899475,0.9377082586288452,-0.10581982135772705,-0.08605271577835083,0.7041381597518921,2022-04-01 14:31:00.34316
2022-04-01 14:31:02.332232,0.043878793716430664,-0.335999995470047,0.8461052179336548,-0.10484325885772705,-0.08165818452835083,0.7007201910018921,2022-04-01 14:31:00.34859
2022-04-01 14:31:02.332232,-0.10879302024841309,-0.32073283195495605,1.014044165611267,-0.10435497760772705,-0.08434373140335083,0.7092651128768921,2022-04-01 14:31:00.35402
2022-04-01 14:31:02.332232,0.24235200881958008,-0.5039389133453369,0.8613723516464233,-0.11241161823272705,-0.08214646577835083,0.7048705816268921,2022-04-01 14:31:00.35945
2022-04-01 14:31:02.332232,0.22708487510681152,-0.04592365771532059,0.693433403968811,-0.10337841510772705,-0.08556443452835083,0.7043823003768921,2022-04-01 14:31:00.36488
2022-04-01 14:31:02.332232,0.1354818344116211,-0.27493128180503845,0.8613723516464233,-0.10411083698272705,-0.08654099702835083,0.7085326910018921,2022-04-01 14:31:00.37031
2022-04-01 14:31:02.332232,0.3034207820892334,-0.32073283195495605,0.8155708312988281,-0.10777294635772705,-0.08214646577835083,0.7004760503768921,2022-04-01 14:31:00.37574
2022-04-01 14:31:02.332232,0.10494756698608398,-0.5039389133453369,0.7239677906036377,-0.10728466510772705,-0.08385545015335083,0.7068237066268921,2022-04-01 14:31:00.38116
2022-04-01 14:31:02.332232,0.05914592742919922,-0.2901984751224518,0.693433403968811,-0.10923779010772705,-0.08776170015335083,0.7078002691268921,2022-04-01 14:31:00.38659
2022-04-01 14:31:02.332232,0.21181774139404297,-0.4123358726501465,0.6476318836212158,-0.10386669635772705,-0.07994920015335083,0.7151244878768921,2022-04-01 14:31:00.39202
2022-04-01 14:31:02.332232,0.18128347396850586,-0.39706867933273315,0.8003036975860596,-0.10704052448272705,-0.07946091890335083,0.7097533941268921,2022-04-01 14:31:00.39745
2022-04-01 14:31:02.332232,-0.047724246978759766,-0.4581373929977417,0.7392349243164062,-0.10581982135772705,-0.08629685640335083,0.7114623785018921,2022-04-01 14:31:00.40288
2022-04-01 14:31:02.332232,0.1660161018371582,-0.39706867933273315,0.9071738719940186,-0.10874950885772705,-0.08898240327835083,0.7060912847518921,2022-04-01 14:31:00.40831
2022-04-01 14:31:02.347891,-0.047724246978759766,-0.4123358726501465,1.1667158603668213,-0.10630810260772705,-0.08605271577835083,0.7060912847518921,2022-04-01 14:31:00.41374
2022-04-01 14:31:02.347891,-0.09352588653564453,-0.4123358726501465,0.9529753923416138,-0.10899364948272705,-0.08287888765335083,0.7043823003768921,2022-04-01 14:31:00.41917
2022-04-01 14:31:02.347891,0.07441306114196777,-0.22912976145744324,1.0293112993240356,-0.10826122760772705,-0.07677537202835083,0.7095092535018921,2022-04-01 14:31:00.42459
2022-04-01 14:31:02.347891,0.10494756698608398,-0.36653435230255127,0.7697693109512329,-0.10752880573272705,-0.08532029390335083,0.7082885503768921,2022-04-01 14:31:00.43002
2022-04-01 14:31:02.347891,0.21181774139404297,-0.5192061066627502,0.9529753923416138,-0.10459911823272705,-0.09020310640335083,0.7060912847518921,2022-04-01 14:31:00.43545
2022-04-01 14:31:02.347891,0.24235200881958008,-0.19859541952610016,0.8461052179336548,-0.10997021198272705,-0.07970505952835083,0.7012084722518921,2022-04-01 14:31:00.44088
2022-04-01 14:31:02.363991,0.07441306114196777,-0.39706867933273315,0.7087006568908691,-0.10411083698272705,-0.08190232515335083,0.7041381597518921,2022-04-01 14:31:00.44631
2022-04-01 14:31:02.363991,0.043878793716430664,-0.44287019968032837,0.9071738719940186,-0.10752880573272705,-0.08239060640335083,0.6990112066268921,2022-04-01 14:31:00.45174
2022-04-01 14:31:02.363991,0.2728865146636963,-0.32073283195495605,0.7850364446640015,-0.10386669635772705,-0.07775193452835083,0.7112182378768921,2022-04-01 14:31:00.45717
2022-04-01 14:31:02.363991,0.02861166000366211,-0.44287019968032837,0.6476318836212158,-0.10630810260772705,-0.08336716890335083,0.7090209722518921,2022-04-01 14:31:00.46260
2022-04-01 14:31:02.363991,0.15074896812438965,-0.24439693987369537,0.7697693109512329,-0.10337841510772705,-0.08068162202835083,0.7131713628768921,2022-04-01 14:31:00.46803
2022-04-01 14:31:02.363991,0.22708487510681152,-0.4123358726501465,0.9071738719940186,-0.10606396198272705,-0.08776170015335083,0.7119506597518921,2022-04-01 14:31:00.47345
2022-04-01 14:31:02.394108,-0.03245711326599121,-0.44287019968032837,0.8308379650115967,-0.11167919635772705,-0.08190232515335083,0.7136596441268921,2022-04-01 14:31:00.47888
2022-04-01 14:31:02.394108,0.19655060768127441,-0.4886717200279236,0.8155708312988281,-0.10093700885772705,-0.08190232515335083,0.7087768316268921,2022-04-01 14:31:00.48431
2022-04-01 14:31:02.394108,0.19655060768127441,-0.4886717200279236,0.7239677906036377,-0.10484325885772705,-0.08239060640335083,0.6992553472518921,2022-04-01 14:31:00.48974
2022-04-01 14:31:02.394108,-0.0019228458404541016,-0.36653435230255127,0.9529753923416138,-0.10386669635772705,-0.08043748140335083,0.7046264410018921,2022-04-01 14:31:00.49517
2022-04-01 14:31:02.394108,0.1660161018371582,-0.2901984751224518,0.693433403968811,-0.10484325885772705,-0.08361130952835083,0.7107299566268921,2022-04-01 14:31:00.50060
2022-04-01 14:31:02.394108,0.08968043327331543,-0.2596641182899475,0.7087006568908691,-0.10997021198272705,-0.08654099702835083,0.7087768316268921,2022-04-01 14:31:00.50603
2022-04-01 14:31:02.394108,0.1660161018371582,-0.5192061066627502,0.9529753923416138,-0.10728466510772705,-0.08458787202835083,0.7043823003768921,2022-04-01 14:31:00.51146
2022-04-01 14:31:02.425001,0.25761914253234863,-0.3818015158176422,0.89190673828125,-0.10508739948272705,-0.08116990327835083,0.7075561285018921,2022-04-01 14:31:00.51688
2022-04-01 14:31:02.425001,0.10494756698608398,-0.4123358726501465,0.6781662702560425,-0.10801708698272705,-0.08116990327835083,0.7126830816268921,2022-04-01 14:31:00.52231
2022-04-01 14:31:02.425001,0.1660161018371582,-0.47340458631515503,0.8003036975860596,-0.10728466510772705,-0.07946091890335083,0.7002319097518921,2022-04-01 14:31:00.52774
2022-04-01 14:31:02.425001,0.25761914253234863,-0.36653435230255127,0.8003036975860596,-0.10972607135772705,-0.07921677827835083,0.7092651128768921,2022-04-01 14:31:00.53317
2022-04-01 14:31:02.425001,0.15074896812438965,-0.4886717200279236,0.7697693109512329,-0.10899364948272705,-0.08507615327835083,0.7104858160018921,2022-04-01 14:31:00.53860
2022-04-01 14:31:02.425001,0.013344526290893555,-0.4123358726501465,0.9377082586288452,-0.11314404010772705,-0.07408982515335083,0.7117065191268921,2022-04-01 14:31:00.54403
2022-04-01 14:31:02.440979,0.19655060768127441,-0.3818015158176422,0.89190673828125,-0.10191357135772705,-0.08165818452835083,0.7070678472518921,2022-04-01 14:31:00.54946
2022-04-01 14:31:02.440979,-0.15459442138671875,-0.3054656386375427,0.9682426452636719,-0.10801708698272705,-0.08361130952835083,0.7119506597518921,2022-04-01 14:31:00.55489
2022-04-01 14:31:02.440979,0.1354818344116211,-0.36653435230255127,0.9835097789764404,-0.09898388385772705,-0.08190232515335083,0.6919311285018921,2022-04-01 14:31:00.56031
2022-04-01 14:31:02.440979,0.24235200881958008,-0.4581373929977417,0.8461052179336548,-0.10484325885772705,-0.08702927827835083,0.7009643316268921,2022-04-01 14:31:00.56574
2022-04-01 14:31:02.440979,0.08968043327331543,-0.5039389133453369,0.8308379650115967,-0.10752880573272705,-0.08214646577835083,0.6992553472518921,2022-04-01 14:31:00.57117
2022-04-01 14:31:02.440979,0.02861166000366211,-0.27493128180503845,0.6781662702560425,-0.10459911823272705,-0.08092576265335083,0.6997436285018921,2022-04-01 14:31:00.57660
2022-04-01 14:31:02.440979,0.10494756698608398,-0.39706867933273315,0.8461052179336548,-0.10777294635772705,-0.08507615327835083,0.7056030035018921,2022-04-01 14:31:00.58203
2022-04-01 14:31:02.480134,0.02861166000366211,-0.5955419540405273,0.8766394853591919,-0.10899364948272705,-0.07628709077835083,0.7090209722518921,2022-04-01 14:31:00.58746
2022-04-01 14:31:02.480134,0.22708487510681152,-0.39706867933273315,0.7850364446640015,-0.10606396198272705,-0.08287888765335083,0.7090209722518921,2022-04-01 14:31:00.59289
2022-04-01 14:31:02.480134,0.10494756698608398,-0.04592365771532059,0.7850364446640015,-0.10533154010772705,-0.08849412202835083,0.6968139410018921,2022-04-01 14:31:00.59832
2022-04-01 14:31:02.480134,0.25761914253234863,-0.3818015158176422,0.8461052179336548,-0.10704052448272705,-0.08409959077835083,0.7129272222518921,2022-04-01 14:31:00.60375
2022-04-01 14:31:02.480134,0.2728865146636963,-0.22912976145744324,0.693433403968811,-0.10484325885772705,-0.08605271577835083,0.7075561285018921,2022-04-01 14:31:00.60917
2022-04-01 14:31:02.480134,0.05914592742919922,-0.32073283195495605,0.7392349243164062,-0.10435497760772705,-0.07555466890335083,0.6987670660018921,2022-04-01 14:31:00.61460
2022-04-01 14:31:02.496037,0.1354818344116211,-0.32073283195495605,0.6476318836212158,-0.10435497760772705,-0.07921677827835083,0.7070678472518921,2022-04-01 14:31:00.62003
2022-04-01 14:31:02.496037,0.22708487510681152,-0.24439693987369537,0.8003036975860596,-0.10337841510772705,-0.07970505952835083,0.6982787847518921,2022-04-01 14:31:00.62546
2022-04-01 14:31:02.496037,0.15074896812438965,-0.36653435230255127,0.6170976161956787,-0.10704052448272705,-0.08019334077835083,0.7121948003768921,2022-04-01 14:31:00.63089
2022-04-01 14:31:02.496037,0.043878793716430664,-0.4276030659675598,0.8766394853591919,-0.09971630573272705,-0.08580857515335083,0.7109740972518921,2022-04-01 14:31:00.63632
2022-04-01 14:31:02.496037,0.22708487510681152,-0.3054656386375427,0.8155708312988281,-0.10337841510772705,-0.07824021577835083,0.7112182378768921,2022-04-01 14:31:00.64175
2022-04-01 14:31:02.496037,-0.017189979553222656,-0.3818015158176422,0.9377082586288452,-0.11070263385772705,-0.08092576265335083,0.7151244878768921,2022-04-01 14:31:00.64718
2022-04-01 14:31:02.511312,0.08968043327331543,-0.5039389133453369,0.9224411249160767,-0.11094677448272705,-0.08068162202835083,0.7056030035018921,2022-04-01 14:31:00.65260
2022-04-01 14:31:02.511312,0.19655060768127441,-0.3054656386375427,0.7850364446640015,-0.10704052448272705,-0.08434373140335083,0.7168334722518921,2022-04-01 14:31:00.65803
2022-04-01 14:31:02.511312,0.1354818344116211,-0.36653435230255127,0.8308379650115967,-0.10581982135772705,-0.08385545015335083,0.7153686285018921,2022-04-01 14:31:00.66346
2022-04-01 14:31:02.511312,0.1354818344116211,-0.2138625979423523,0.89190673828125,-0.10972607135772705,-0.08190232515335083,0.7058471441268921,2022-04-01 14:31:00.66889
2022-04-01 14:31:02.511312,0.21181774139404297,-0.32073283195495605,0.8461052179336548,-0.11094677448272705,-0.07677537202835083,0.7124389410018921,2022-04-01 14:31:00.67432
2022-04-01 14:31:02.511312,-0.047724246978759766,-0.22912976145744324,0.8155708312988281,-0.09996044635772705,-0.08043748140335083,0.7092651128768921,2022-04-01 14:31:00.67975
2022-04-01 14:31:02.511312,-0.047724246978759766,-0.22912976145744324,0.7392349243164062,-0.10337841510772705,-0.08287888765335083,0.7087768316268921,2022-04-01 14:31:00.68518
2022-04-01 14:31:02.542818,0.24235200881958008,-0.4123358726501465,0.9224411249160767,-0.10362255573272705,-0.07994920015335083,0.7109740972518921,2022-04-01 14:31:00.69061
2022-04-01 14:31:02.542818,0.1354818344116211,-0.4581373929977417,0.9071738719940186,-0.10777294635772705,-0.08995896577835083,0.7009643316268921,2022-04-01 14:31:00.69603
2022-04-01 14:31:02.542818,0.2728865146636963,-0.4123358726501465,0.7087006568908691,-0.10508739948272705,-0.08116990327835083,0.7024291753768921,2022-04-01 14:31:00.70146
2022-04-01 14:31:02.542818,0.19655060768127441,-0.4276030659675598,0.9377082586288452,-0.10435497760772705,-0.07897263765335083,0.7070678472518921,2022-04-01 14:31:00.70689
2022-04-01 14:31:02.542818,-0.07825851440429688,-0.32073283195495605,0.8308379650115967,-0.10581982135772705,-0.08068162202835083,0.7095092535018921,2022-04-01 14:31:00.71232
2022-04-01 14:31:02.542818,0.12021470069885254,-0.2596641182899475,0.7392349243164062,-0.10484325885772705,-0.08116990327835083,0.7095092535018921,2022-04-01 14:31:00.71775
2022-04-01 14:31:02.564633,0.18128347396850586,-0.4123358726501465,0.8155708312988281,-0.10581982135772705,-0.07994920015335083,0.7090209722518921,2022-04-01 14:31:00.72318
2022-04-01 14:31:02.564633,-0.03245711326599121,-0.3054656386375427,0.8003036975860596,-0.10972607135772705,-0.08116990327835083,0.7073119878768921,2022-04-01 14:31:00.72861
2022-04-01 14:31:02.564633,0.07441306114196777,-0.3818015158176422,0.89190673828125,-0.11192333698272705,-0.08507615327835083,0.7063354253768921,2022-04-01 14:31:00.73404
2022-04-01 14:31:02.564633,0.05914592742919922,-0.27493128180503845,0.8766394853591919,-0.09825146198272705,-0.08287888765335083,0.7139037847518921,2022-04-01 14:31:00.73947
2022-04-01 14:31:02.564633,-0.03245711326599121,-0.3818015158176422,1.0445784330368042,-0.10362255573272705,-0.08312302827835083,0.7104858160018921,2022-04-01 14:31:00.74489
2022-04-01 14:31:02.564633,-0.0019228458404541016,-0.6108091473579407,0.9835097789764404,-0.10777294635772705,-0.07799607515335083,0.7109740972518921,2022-04-01 14:31:00.75032
2022-04-01 14:31:02.564633,0.05914592742919922,-0.36653435230255127,0.9682426452636719,-0.10752880573272705,-0.08898240327835083,0.7031615972518921,2022-04-01 14:31:00.75575
2022-04-01 14:31:02.596179,0.15074896812438965,-0.4276030659675598,0.8766394853591919,-0.10923779010772705,-0.08434373140335083,0.7043823003768921,2022-04-01 14:31:00.76118
2022-04-01 14:31:02.596179,0.1660161018371582,-0.36653435230255127,0.9529753923416138,-0.10948193073272705,-0.08409959077835083,0.7043823003768921,2022-04-01 14:31:00.76661
2022-04-01 14:31:02.596179,-0.0019228458404541016,-0.5192061066627502,0.9529753923416138,-0.10850536823272705,-0.08385545015335083,0.7056030035018921,2022-04-01 14:31:00.77204
2022-04-01 14:31:02.596179,0.07441306114196777,-0.44287019968032837,0.8308379650115967,-0.10484325885772705,-0.08165818452835083,0.7114623785018921,2022-04-01 14:31:00.77747
2022-04-01 14:31:02.596179,0.28815364837646484,-0.3818015158176422,0.8613723516464233,-0.10997021198272705,-0.07799607515335083,0.7070678472518921,2022-04-01 14:31:00.78290
2022-04-01 14:31:02.596179,0.19655060768127441,-0.36653435230255127,0.6781662702560425,-0.10752880573272705,-0.07994920015335083,0.7063354253768921,2022-04-01 14:31:00.78832
2022-04-01 14:31:02.611871,0.05914592742919922,-0.24439693987369537,0.7850364446640015,-0.10826122760772705,-0.07897263765335083,0.7041381597518921,2022-04-01 14:31:00.79375
2022-04-01 14:31:02.611871,0.25761914253234863,-0.4123358726501465,0.7697693109512329,-0.10777294635772705,-0.07775193452835083,0.7063354253768921,2022-04-01 14:31:00.79918
2022-04-01 14:31:02.611871,0.07441306114196777,-0.4123358726501465,0.9529753923416138,-0.10850536823272705,-0.08678513765335083,0.7082885503768921,2022-04-01 14:31:00.80461
2022-04-01 14:31:02.611871,0.21181774139404297,-0.39706867933273315,0.8308379650115967,-0.10630810260772705,-0.08385545015335083,0.7019408941268921,2022-04-01 14:31:00.81004
2022-04-01 14:31:02.611871,0.21181774139404297,-0.32073283195495605,0.7239677906036377,-0.10557568073272705,-0.08507615327835083,0.7075561285018921,2022-04-01 14:31:00.81547
2022-04-01 14:31:02.611871,0.043878793716430664,-0.47340458631515503,0.7392349243164062,-0.11021435260772705,-0.07555466890335083,0.7063354253768921,2022-04-01 14:31:00.82090
2022-04-01 14:31:02.643126,0.12021470069885254,-0.24439693987369537,0.8003036975860596,-0.10850536823272705,-0.08312302827835083,0.7095092535018921,2022-04-01 14:31:00.82633
2022-04-01 14:31:02.643126,0.12021470069885254,-0.3054656386375427,0.7850364446640015,-0.10728466510772705,-0.08605271577835083,0.7126830816268921,2022-04-01 14:31:00.83175
2022-04-01 14:31:02.643126,0.1354818344116211,-0.44287019968032837,0.9377082586288452,-0.11338818073272705,-0.08678513765335083,0.7026733160018921,2022-04-01 14:31:00.83718
2022-04-01 14:31:02.643126,0.07441306114196777,-0.39706867933273315,0.7392349243164062,-0.10850536823272705,-0.08385545015335083,0.7095092535018921,2022-04-01 14:31:00.84261
2022-04-01 14:31:02.643126,0.12021470069885254,-0.5802748203277588,1.0598456859588623,-0.11216747760772705,-0.08898240327835083,0.7060912847518921,2022-04-01 14:31:00.84804
2022-04-01 14:31:02.643126,0.02861166000366211,-0.32073283195495605,0.8461052179336548,-0.10874950885772705,-0.08776170015335083,0.7107299566268921,2022-04-01 14:31:00.85347
2022-04-01 14:31:02.643126,0.22708487510681152,-0.2901984751224518,0.8003036975860596,-0.10484325885772705,-0.08068162202835083,0.7112182378768921,2022-04-01 14:31:00.85890
2022-04-01 14:31:02.665095,0.08968043327331543,-0.3054656386375427,0.8155708312988281,-0.10240185260772705,-0.08165818452835083,0.7075561285018921,2022-04-01 14:31:00.86433
2022-04-01 14:31:02.665095,0.013344526290893555,-0.3818015158176422,0.8155708312988281,-0.10655224323272705,-0.08556443452835083,0.7085326910018921,2022-04-01 14:31:00.86976
2022-04-01 14:31:02.665095,0.12021470069885254,-0.335999995470047,0.9529753923416138,-0.11070263385772705,-0.09191209077835083,0.6980346441268921,2022-04-01 14:31:00.87519
2022-04-01 14:31:02.665095,0.013344526290893555,-0.4581373929977417,0.998776912689209,-0.10337841510772705,-0.08800584077835083,0.7075561285018921,2022-04-01 14:31:00.88061
2022-04-01 14:31:02.665095,0.02861166000366211,-0.5039389133453369,0.8003036975860596,-0.11070263385772705,-0.08434373140335083,0.7112182378768921,2022-04-01 14:31:00.88604
2022-04-01 14:31:02.665095,0.22708487510681152,-0.5039389133453369,0.8155708312988281,-0.10215771198272705,-0.08409959077835083,0.7139037847518921,2022-04-01 14:31:00.89147
2022-04-01 14:31:02.681083,0.12021470069885254,-0.3818015158176422,0.8003036975860596,-0.10240185260772705,-0.07604295015335083,0.7046264410018921,2022-04-01 14:31:00.89690
2022-04-01 14:31:02.681083,0.21181774139404297,-0.3818015158176422,0.8155708312988281,-0.10801708698272705,-0.08409959077835083,0.7095092535018921,2022-04-01 14:31:00.90233
2022-04-01 14:31:02.681083,0.21181774139404297,-0.36653435230255127,0.8155708312988281,-0.11070263385772705,-0.08336716890335083,0.7009643316268921,2022-04-01 14:31:00.90776
2022-04-01 14:31:02.681083,0.043878793716430664,-0.2901984751224518,0.9377082586288452,-0.10557568073272705,-0.08458787202835083,0.6992553472518921,2022-04-01 14:31:00.91319
2022-04-01 14:31:02.681083,0.07441306114196777,-0.39706867933273315,0.8155708312988281,-0.10972607135772705,-0.08556443452835083,0.7080444097518921,2022-04-01 14:31:00.91862
2022-04-01 14:31:02.681083,0.10494756698608398,-0.2901984751224518,0.8003036975860596,-0.10752880573272705,-0.08239060640335083,0.7060912847518921,2022-04-01 14:31:00.92404
2022-04-01 14:31:02.712267,0.02861166000366211,-0.2901984751224518,0.8461052179336548,-0.10777294635772705,-0.08092576265335083,0.7016967535018921,2022-04-01 14:31:00.92947
2022-04-01 14:31:02.712267,0.12021470069885254,-0.3818015158176422,0.9071738719940186,-0.10777294635772705,-0.08336716890335083,0.7117065191268921,2022-04-01 14:31:00.93490
2022-04-01 14:31:02.712267,0.18128347396850586,-0.2596641182899475,0.89190673828125,-0.10655224323272705,-0.08458787202835083,0.7068237066268921,2022-04-01 14:31:00.94033
2022-04-01 14:31:02.712267,-0.03245711326599121,-0.3818015158176422,1.0293112993240356,-0.11021435260772705,-0.08287888765335083,0.7078002691268921,2022-04-01 14:31:00.94576
2022-04-01 14:31:02.712267,0.19655060768127441,-0.4123358726501465,0.7850364446640015,-0.11241161823272705,-0.08434373140335083,0.6994994878768921,2022-04-01 14:31:00.95119
2022-04-01 14:31:02.712267,0.1660161018371582,-0.3818015158176422,0.9071738719940186,-0.11021435260772705,-0.08190232515335083,0.7078002691268921,2022-04-01 14:31:00.95662
2022-04-01 14:31:02.712267,-0.03245711326599121,-0.35126715898513794,0.9835097789764404,-0.10459911823272705,-0.07897263765335083,0.7004760503768921,2022-04-01 14:31:00.96205
2022-04-01 14:31:03.266265,0.12021470069885254,-0.39706867933273315,0.8155708312988281,-0.10997021198272705,-0.08507615327835083,0.7080444097518921,2022-04-01 14:31:01.71665
2022-04-01 14:31:03.266265,-0.017189979553222656,-0.32073283195495605,0.7697693109512329,-0.10606396198272705,-0.07848435640335083,0.6987670660018921,2022-04-01 14:31:01.72208
2022-04-01 14:31:03.282237,0.043878793716430664,-0.335999995470047,0.89190673828125,-0.10704052448272705,-0.08312302827835083,0.7087768316268921,2022-04-01 14:31:01.72751
2022-04-01 14:31:03.282237,0.15074896812438965,-0.4581373929977417,0.693433403968811,-0.11021435260772705,-0.07555466890335083,0.7016967535018921,2022-04-01 14:31:01.73294
2022-04-01 14:31:03.282237,0.013344526290893555,-0.36653435230255127,0.7392349243164062,-0.11216747760772705,-0.08239060640335083,0.7016967535018921,2022-04-01 14:31:01.73836
2022-04-01 14:31:03.282237,0.1354818344116211,-0.35126715898513794,0.998776912689209,-0.10069286823272705,-0.08702927827835083,0.7004760503768921,2022-04-01 14:31:01.74379
2022-04-01 14:31:03.282237,0.18128347396850586,-0.4276030659675598,0.7087006568908691,-0.10752880573272705,-0.08678513765335083,0.7024291753768921,2022-04-01 14:31:01.74922
2022-04-01 14:31:03.282237,-0.0019228458404541016,-0.47340458631515503,1.0445784330368042,-0.10630810260772705,-0.08263474702835083,0.7004760503768921,2022-04-01 14:31:01.75465
2022-04-01 14:31:03.282237,0.1354818344116211,-0.4276030659675598,0.6781662702560425,-0.11363232135772705,-0.07872849702835083,0.7092651128768921,2022-04-01 14:31:01.76008
2022-04-01 14:31:03.313475,0.33395516872406006,-0.32073283195495605,0.693433403968811,-0.10435497760772705,-0.07994920015335083,0.7087768316268921,2022-04-01 14:31:01.76551
2022-04-01 14:31:03.313475,0.013344526290893555,-0.3818015158176422,0.8613723516464233,-0.10874950885772705,-0.08409959077835083,0.6968139410018921,2022-04-01 14:31:01.77094
2022-04-01 14:31:03.313475,0.24235200881958008,-0.39706867933273315,0.8613723516464233,-0.10777294635772705,-0.08409959077835083,0.7041381597518921,2022-04-01 14:31:01.77637
2022-04-01 14:31:03.313475,0.3492223024368286,-0.335999995470047,0.571295976638794,-0.11021435260772705,-0.08043748140335083,0.7016967535018921,2022-04-01 14:31:01.78179
2022-04-01 14:31:03.313475,0.3034207820892334,-0.27493128180503845,0.8003036975860596,-0.11729443073272705,-0.08849412202835083,0.7036498785018921,2022-04-01 14:31:01.78722
2022-04-01 14:31:03.313475,0.18128347396850586,-0.4123358726501465,0.6476318836212158,-0.10581982135772705,-0.08239060640335083,0.7048705816268921,2022-04-01 14:31:01.79265
2022-04-01 14:31:03.334873,0.24235200881958008,-0.2596641182899475,0.8613723516464233,-0.10777294635772705,-0.08434373140335083,0.7099975347518921,2022-04-01 14:31:01.79808
2022-04-01 14:31:03.334873,-0.0019228458404541016,-0.335999995470047,0.89190673828125,-0.11509716510772705,-0.08751755952835083,0.7075561285018921,2022-04-01 14:31:01.80351
2022-04-01 14:31:03.334873,0.21181774139404297,-0.335999995470047,0.8155708312988281,-0.10386669635772705,-0.08312302827835083,0.7068237066268921,2022-04-01 14:31:01.80894
2022-04-01 14:31:03.334873,-0.10879302024841309,-0.32073283195495605,1.0445784330368042,-0.11436474323272705,-0.08043748140335083,0.7053588628768921,2022-04-01 14:31:01.81437
2022-04-01 14:31:03.334873,-0.06299138069152832,-0.39706867933273315,0.7239677906036377,-0.10777294635772705,-0.08385545015335083,0.7092651128768921,2022-04-01 14:31:01.81980
2022-04-01 14:31:03.334873,0.12021470069885254,-0.3818015158176422,0.998776912689209,-0.10044872760772705,-0.08165818452835083,0.7058471441268921,2022-04-01 14:31:01.82523
2022-04-01 14:31:03.334873,0.1660161018371582,-0.39706867933273315,0.89190673828125,-0.10313427448272705,-0.08507615327835083,0.7078002691268921,2022-04-01 14:31:01.83065
2022-04-01 14:31:03.366387,0.19655060768127441,-0.44287019968032837,0.9071738719940186,-0.10728466510772705,-0.08068162202835083,0.7026733160018921,2022-04-01 14:31:01.83608
2022-04-01 14:31:03.367401,0.21181774139404297,-0.32073283195495605,0.8461052179336548,-0.10997021198272705,-0.07848435640335083,0.7085326910018921,2022-04-01 14:31:01.84151
2022-04-01 14:31:03.367401,-0.10879302024841309,-0.5192061066627502,0.9224411249160767,-0.10923779010772705,-0.08507615327835083,0.7048705816268921,2022-04-01 14:31:01.84694
2022-04-01 14:31:03.367401,0.10494756698608398,-0.35126715898513794,0.6170976161956787,-0.11241161823272705,-0.08727341890335083,0.7024291753768921,2022-04-01 14:31:01.85237
2022-04-01 14:31:03.367401,0.2728865146636963,-0.1375267058610916,0.7697693109512329,-0.11143505573272705,-0.07555466890335083,0.7080444097518921,2022-04-01 14:31:01.85780
2022-04-01 14:31:03.367401,0.4713597297668457,-0.2901984751224518,0.6628991365432739,-0.11216747760772705,-0.08409959077835083,0.7038940191268921,2022-04-01 14:31:01.86323
2022-04-01 14:31:03.386732,1.1583826541900635,-0.1680610626935959,0.03694486618041992,-0.11656200885772705,-0.07775193452835083,0.7090209722518921,2022-04-01 14:31:01.86866
2022-04-01 14:31:03.386732,1.47899329662323,-0.0917251855134964,-0.2225971221923828,-0.11729443073272705,-0.08532029390335083,0.7095092535018921,2022-04-01 14:31:01.87408
2022-04-01 14:31:03.386732,-0.2767319679260254,0.1983511596918106,0.4796929359436035,-0.10264599323272705,-0.12609177827835083,0.7095092535018921,2022-04-01 14:31:01.87951
2022-04-01 14:31:03.386732,-2.9942891597747803,-0.2138625979423523,1.4873266220092773,-0.09898388385772705,-0.10265427827835083,0.7117065191268921,2022-04-01 14:31:01.88494
2022-04-01 14:31:03.386732,-0.4141364097595215,-1.1909618377685547,2.174349546432495,-0.11509716510772705,-0.03356248140335083,0.7056030035018921,2022-04-01 14:31:01.89037
2022-04-01 14:31:03.386732,1.1278482675552368,-1.3589006662368774,1.3804563283920288,-0.12071239948272705,-0.08458787202835083,0.7104858160018921,2022-04-01 14:31:01.89580
2022-04-01 14:31:03.402304,-1.6049761772155762,0.45789313316345215,1.8384716510772705,-0.10581982135772705,-0.10314255952835083,0.6958373785018921,2022-04-01 14:31:01.90123
2022-04-01 14:31:03.402304,-0.39886927604675293,0.7174351215362549,2.4491586685180664,-0.10997021198272705,-0.07140427827835083,0.7121948003768921,2022-04-01 14:31:01.90666
2022-04-01 14:31:03.402304,1.8148711919784546,-1.5573740005493164,-0.08519244194030762,-0.10972607135772705,-0.08800584077835083,0.7085326910018921,2022-04-01 14:31:01.91209
2022-04-01 14:31:03.402304,0.9599093198776245,-1.2062289714813232,-1.4134368896484375,-0.11436474323272705,-0.08849412202835083,0.7048705816268921,2022-04-01 14:31:01.91751
2022-04-01 14:31:03.402304,-0.10879302024841309,1.1143816709518433,-0.2225971221923828,-0.10411083698272705,-0.06993943452835083,0.6860717535018921,2022-04-01 14:31:01.92294
2022-04-01 14:31:03.402304,1.051512360572815,0.8548397421836853,0.8155708312988281,-0.10289013385772705,-0.07994920015335083,0.7087768316268921,2022-04-01 14:31:01.92837
2022-04-01 14:31:03.402304,1.4179246425628662,-1.1909618377685547,0.12854790687561035,-0.11216747760772705,-0.09142380952835083,0.7090209722518921,2022-04-01 14:31:01.93380
2022-04-01 14:31:03.433644,0.1660161018371582,-1.3741679191589355,0.250685453414917,-0.10069286823272705,-0.08434373140335083,0.6987670660018921,2022-04-01 14:31:01.93923
2022-04-01 14:31:03.433644,-0.21566319465637207,0.3204885721206665,1.6094639301300049,-0.10215771198272705,-0.07579880952835083,0.6902221441268921,2022-04-01 14:31:01.94466
2022-04-01 14:31:03.433644,0.2728865146636963,0.07621374726295471,1.3957234621047974,-0.10508739948272705,-0.08458787202835083,0.7178100347518921,2022-04-01 14:31:01.95009
2022-04-01 14:31:03.433644,0.043878793716430664,-1.1451603174209595,0.5560288429260254,-0.11070263385772705,-0.08678513765335083,0.7075561285018921,2022-04-01 14:31:01.95552
2022-04-01 14:31:03.433644,-0.0019228458404541016,-0.7482137680053711,0.20488381385803223,-0.10777294635772705,-0.08312302827835083,0.6992553472518921,2022-04-01 14:31:01.96095
2022-04-01 14:31:03.433644,0.02861166000366211,0.4731602668762207,1.120914340019226,-0.10826122760772705,-0.07848435640335083,0.7014526128768921,2022-04-01 14:31:01.96637
2022-04-01 14:31:03.449108,-0.4141364097595215,-0.015389308333396912,1.3499219417572021,-0.10289013385772705,-0.08947068452835083,0.7107299566268921,2022-04-01 14:31:01.97180
2022-04-01 14:31:03.449108,-0.3683350086212158,-0.9008855223655701,0.998776912689209,-0.10923779010772705,-0.08361130952835083,0.7117065191268921,2022-04-01 14:31:01.97723
2022-04-01 14:31:03.449108,-0.18512892723083496,-0.9008855223655701,1.1819831132888794,-0.10850536823272705,-0.07921677827835083,0.7031615972518921,2022-04-01 14:31:01.98266
2022-04-01 14:31:03.449108,-0.09352588653564453,-0.10699236392974854,1.2583189010620117,-0.11192333698272705,-0.08141404390335083,0.7060912847518921,2022-04-01 14:31:01.98809
2022-04-01 14:31:03.449108,0.31868791580200195,-0.15279388427734375,0.9835097789764404,-0.11338818073272705,-0.08068162202835083,0.7080444097518921,2022-04-01 14:31:01.99352
2022-04-01 14:31:03.449108,0.48662686347961426,-0.36653435230255127,0.4796929359436035,-0.10459911823272705,-0.08287888765335083,0.7095092535018921,2022-04-01 14:31:01.99895
2022-04-01 14:31:03.449108,0.5324283838272095,-0.44287019968032837,0.3117539882659912,-0.11582958698272705,-0.08727341890335083,0.7051147222518921,2022-04-01 14:31:02.43800
2022-04-01 14:31:03.482285,0.5018941164016724,-0.3054656386375427,0.32702112197875977,-0.11119091510772705,-0.08141404390335083,0.7075561285018921,2022-04-01 14:31:02.98000
2022-04-01 14:31:03.482285,0.3492223024368286,-0.07645800709724426,0.4796929359436035,-0.10630810260772705,-0.08385545015335083,0.7053588628768921,2022-04-01 14:31:02.15230
2022-04-01 14:31:03.482285,0.24235200881958008,-0.3818015158176422,0.6628991365432739,-0.11021435260772705,-0.08165818452835083,0.7065795660018921,2022-04-01 14:31:02.20660
2022-04-01 14:31:03.482285,0.15074896812438965,-0.5802748203277588,0.7697693109512329,-0.10484325885772705,-0.07799607515335083,0.7090209722518921,2022-04-01 14:31:02.26090
2022-04-01 14:31:03.482285,0.12021470069885254,-0.4886717200279236,0.9071738719940186,-0.11534130573272705,-0.07775193452835083,0.6946166753768921,2022-04-01 14:31:02.31520
2022-04-01 14:31:03.482285,-0.1698615550994873,-0.36653435230255127,1.2125173807144165,-0.10679638385772705,-0.08434373140335083,0.7007201910018921,2022-04-01 14:31:02.36950
2022-04-01 14:31:03.513610,-0.03245711326599121,-0.4123358726501465,1.1056472063064575,-0.11460888385772705,-0.09117966890335083,0.7082885503768921,2022-04-01 14:31:02.42380
2022-04-01 14:31:03.513610,-0.12406015396118164,-0.39706867933273315,1.0293112993240356,-0.10972607135772705,-0.08092576265335083,0.7056030035018921,2022-04-01 14:31:02.47810
2022-04-01 14:31:03.513610,-0.10879302024841309,-0.5497404336929321,0.89190673828125,-0.10801708698272705,-0.08702927827835083,0.7029174566268921,2022-04-01 14:31:02.53230
2022-04-01 14:31:03.513610,-0.03245711326599121,-0.1375267058610916,0.9071738719940186,-0.10801708698272705,-0.08702927827835083,0.7112182378768921,2022-04-01 14:31:02.58660
2022-04-01 14:31:03.513610,-0.017189979553222656,-0.12225953489542007,1.1819831132888794,-0.10362255573272705,-0.08263474702835083,0.7046264410018921,2022-04-01 14:31:02.64090
2022-04-01 14:31:03.513610,0.1354818344116211,-0.3818015158176422,0.8461052179336548,-0.10948193073272705,-0.08532029390335083,0.7082885503768921,2022-04-01 14:31:02.69520
2022-04-01 14:31:03.545097,0.18128347396850586,-0.44287019968032837,0.8461052179336548,-0.11289989948272705,-0.08580857515335083,0.7016967535018921,2022-04-01 14:31:02.74950
2022-04-01 14:31:03.545097,0.02861166000366211,-0.4123358726501465,0.9835097789764404,-0.11021435260772705,-0.08385545015335083,0.7004760503768921,2022-04-01 14:31:02.80380
2022-04-01 14:31:03.545097,0.10494756698608398,-0.2901984751224518,0.7850364446640015,-0.11753857135772705,-0.07604295015335083,0.6953490972518921,2022-04-01 14:31:02.85810
2022-04-01 14:31:03.545097,0.4255582094192505,-0.335999995470047,0.6781662702560425,-0.10557568073272705,-0.07921677827835083,0.7038940191268921,2022-04-01 14:31:02.91240
2022-04-01 14:31:03.545097,0.3492223024368286,-0.2596641182899475,0.7087006568908691,-0.10606396198272705,-0.07994920015335083,0.7038940191268921,2022-04-01 14:31:02.96670
2022-04-01 14:31:03.545097,0.21181774139404297,-0.2596641182899475,0.7697693109512329,-0.11167919635772705,-0.08824998140335083,0.7029174566268921,2022-04-01 14:31:02.10209
2022-04-01 14:31:03.545097,0.19655060768127441,-0.2138625979423523,0.8613723516464233,-0.10777294635772705,-0.08483201265335083,0.7112182378768921,2022-04-01 14:31:02.10752
2022-04-01 14:31:03.545097,-0.0019228458404541016,-0.35126715898513794,0.7697693109512329,-0.10655224323272705,-0.07824021577835083,0.7041381597518921,2022-04-01 14:31:02.11295
2022-04-01 14:31:03.545097,0.15074896812438965,-0.335999995470047,0.9224411249160767,-0.11045849323272705,-0.08532029390335083,0.7012084722518921,2022-04-01 14:31:02.11838
2022-04-01 14:31:03.545097,0.15074896812438965,-0.2596641182899475,0.8308379650115967,-0.10630810260772705,-0.07701951265335083,0.7012084722518921,2022-04-01 14:31:02.12381
2022-04-01 14:31:03.545097,-0.03245711326599121,-0.44287019968032837,1.120914340019226,-0.10826122760772705,-0.08532029390335083,0.7146362066268921,2022-04-01 14:31:02.12924
2022-04-01 14:31:03.545097,0.12021470069885254,-0.4581373929977417,0.8003036975860596,-0.10581982135772705,-0.08654099702835083,0.6985229253768921,2022-04-01 14:31:02.13467
2022-04-01 14:31:03.545097,-0.047724246978759766,-0.22912976145744324,0.89190673828125,-0.11021435260772705,-0.08043748140335083,0.7078002691268921,2022-04-01 14:31:02.14010
2022-04-01 14:31:03.582671,-0.07825851440429688,-0.335999995470047,0.9682426452636719,-0.11509716510772705,-0.08190232515335083,0.7085326910018921,2022-04-01 14:31:02.14552
2022-04-01 14:31:03.582671,0.15074896812438965,-0.4886717200279236,0.7545021772384644,-0.10874950885772705,-0.07994920015335083,0.7095092535018921,2022-04-01 14:31:02.15095
2022-04-01 14:31:03.582671,0.12021470069885254,-0.35126715898513794,0.7545021772384644,-0.11460888385772705,-0.08239060640335083,0.7058471441268921,2022-04-01 14:31:02.15638
2022-04-01 14:31:03.582671,0.18128347396850586,-0.2596641182899475,0.693433403968811,-0.11363232135772705,-0.08043748140335083,0.7073119878768921,2022-04-01 14:31:02.16181
2022-04-01 14:31:03.582671,0.5018941164016724,-0.1680610626935959,0.7697693109512329,-0.11534130573272705,-0.08239060640335083,0.7004760503768921,2022-04-01 14:31:02.16724
2022-04-01 14:31:03.582671,0.18128347396850586,-0.3054656386375427,0.7850364446640015,-0.11143505573272705,-0.08727341890335083,0.7070678472518921,2022-04-01 14:31:02.17267
2022-04-01 14:31:03.598496,0.07441306114196777,-0.32073283195495605,0.6018303632736206,-0.10752880573272705,-0.08092576265335083,0.7087768316268921,2022-04-01 14:31:02.17810
2022-04-01 14:31:03.598496,0.22708487510681152,-0.2901984751224518,0.9071738719940186,-0.10972607135772705,-0.08385545015335083,0.7007201910018921,2022-04-01 14:31:02.18353
2022-04-01 14:31:03.598496,0.07441306114196777,-0.39706867933273315,0.571295976638794,-0.11167919635772705,-0.08068162202835083,0.7034057378768921,2022-04-01 14:31:02.18895
2022-04-01 14:31:03.598496,0.08968043327331543,-0.4123358726501465,0.8766394853591919,-0.10459911823272705,-0.08580857515335083,0.7068237066268921,2022-04-01 14:31:02.19438
2022-04-01 14:31:03.598496,0.3492223024368286,-0.47340458631515503,0.7239677906036377,-0.10728466510772705,-0.07946091890335083,0.7043823003768921,2022-04-01 14:31:02.19981
2022-04-01 14:31:03.598496,-0.017189979553222656,-0.19859541952610016,0.998776912689209,-0.11119091510772705,-0.08190232515335083,0.6994994878768921,2022-04-01 14:31:02.20524
2022-04-01 14:31:03.598496,-0.10879302024841309,-0.4123358726501465,0.9224411249160767,-0.11143505573272705,-0.08312302827835083,0.7097533941268921,2022-04-01 14:31:02.21067
2022-04-01 14:31:03.629747,0.05914592742919922,-0.3818015158176422,0.9835097789764404,-0.10679638385772705,-0.08092576265335083,0.7038940191268921,2022-04-01 14:31:02.21610
2022-04-01 14:31:03.629747,-0.10879302024841309,-0.22912976145744324,0.9682426452636719,-0.11241161823272705,-0.08434373140335083,0.7014526128768921,2022-04-01 14:31:02.22153
2022-04-01 14:31:03.629747,0.013344526290893555,-0.335999995470047,0.7392349243164062,-0.10801708698272705,-0.07799607515335083,0.7038940191268921,2022-04-01 14:31:02.22696
2022-04-01 14:31:03.629747,11.28052043914795,-9.725313186645508,-0.573742151260376,-0.06822216510772705,-0.08678513765335083,0.5408080816268921,2022-04-01 14:31:02.23239
2022-04-01 14:31:03.629747,63.32632064819336,-13.664244651794434,-93.87145233154297,-0.661239743232727,-0.35485154390335083,0.6094115972518921,2022-04-01 14:31:02.23781
2022-04-01 14:31:03.629747,93.93701171875,25.236520767211914,-87.55084228515625,0.02381885051727295,0.15955275297164917,0.2866576910018921,2022-04-01 14:31:02.24324
2022-04-01 14:31:03.660921,89.66220092773438,39.17544937133789,-87.76457977294922,-0.12242138385772705,-0.16564255952835083,0.8122924566268921,2022-04-01 14:31:02.24867
2022-04-01 14:31:03.660921,64.04387664794922,41.23651885986328,-43.505043029785156,0.11805713176727295,-0.07189255952835083,1.046667456626892,2022-04-01 14:31:02.25410
2022-04-01 14:31:03.660921,27.036245346069336,1.0075114965438843,-30.90962028503418,0.09632861614227295,-0.08995896577835083,0.9917358160018921,2022-04-01 14:31:02.25953
2022-04-01 14:31:03.660921,-24.36833381652832,-2.6871449947357178,22.983509063720703,0.09877002239227295,0.02478712797164917,0.8818725347518921,2022-04-01 14:31:02.26496
2022-04-01 14:31:03.660921,-56.85688400268555,-13.389435768127441,58.25068283081055,0.06898486614227295,-0.06993943452835083,0.8999389410018921,2022-04-01 14:31:02.27039
2022-04-01 14:31:03.660921,-87.2080307006836,-6.1985955238342285,82.99877166748047,-0.04039013385772705,-0.08019334077835083,0.8994506597518921,2022-04-01 14:31:02.27582
2022-04-01 14:31:03.660921,-101.91031646728516,-17.908517837524414,87.16671752929688,-0.05894482135772705,-0.05748826265335083,0.7927612066268921,2022-04-01 14:31:02.28124
2022-04-01 14:31:03.682863,-93.14695739746094,-24.641342163085938,84.31175231933594,-0.11460888385772705,-0.04723435640335083,0.6655639410018921,2022-04-01 14:31:02.28667
2022-04-01 14:31:03.682863,-76.85688781738281,-9.374168395996094,69.4109878540039,-0.20982372760772705,-0.01158982515335083,0.6289428472518921,2022-04-01 14:31:02.29210
2022-04-01 14:31:03.682863,-44.047725677490234,-4.4123358726501465,40.58656311035156,-0.18540966510772705,-0.01305466890335083,0.5906127691268921,2022-04-01 14:31:02.29753
2022-04-01 14:31:03.682863,-17.666044235229492,-6.900885581970215,16.754501342773438,-0.20494091510772705,-0.08239060640335083,0.5964721441268921,2022-04-01 14:31:02.30296
2022-04-01 14:31:03.682863,-7.009555816650391,-1.2062289714813232,0.4949601888656616,-0.19004833698272705,-0.13683396577835083,0.5884155035018921,2022-04-01 14:31:02.30839
2022-04-01 14:31:03.682863,-0.017189979553222656,1.3281221389770508,-3.58137583732605,-0.15489208698272705,-0.15734177827835083,0.5937865972518921,2022-04-01 14:31:02.31382
2022-04-01 14:31:03.698752,-0.3836021423339844,3.114381790161133,-3.8867194652557373,-0.13999950885772705,-0.18004685640335083,0.6199096441268921,2022-04-01 14:31:02.31925
2022-04-01 14:31:03.698752,5.372122764587402,6.503694534301758,-5.001222610473633,-0.13658154010772705,-0.13585740327835083,0.6833862066268921,2022-04-01 14:31:02.32467
2022-04-01 14:31:03.698752,18.318687438964844,1.8319389820098877,-22.71114730834961,-0.14366161823272705,-0.05797654390335083,0.7082885503768921,2022-04-01 14:31:02.33010
2022-04-01 14:31:03.698752,25.64693260192871,-2.213862657546997,-15.260765075683594,-0.10215771198272705,-0.02501755952835083,0.6479858160018921,2022-04-01 14:31:02.33553
2022-04-01 14:31:03.698752,22.959909439086914,1.5418626070022583,-13.795116424560547,-0.12364208698272705,-0.09703904390335083,0.7156127691268921,2022-04-01 14:31:02.34096
2022-04-01 14:31:03.698752,17.875940322875977,5.938808917999268,-12.360001564025879,-0.10826122760772705,-0.10289841890335083,0.6814330816268921,2022-04-01 14:31:02.34639
2022-04-01 14:31:03.730041,15.845405578613281,2.7327022552490234,-11.993589401245117,-0.09825146198272705,-0.07677537202835083,0.7412475347518921,2022-04-01 14:31:02.35182
2022-04-01 14:31:03.730041,10.89884090423584,-0.7940152883529663,-12.253130912780762,-0.10337841510772705,-0.08190232515335083,0.7353881597518921,2022-04-01 14:31:02.35725
2022-04-01 14:31:03.730041,0.3492223024368286,0.7632366418838501,-4.8027496337890625,-0.08140575885772705,-0.08629685640335083,0.7217162847518921,2022-04-01 14:31:02.36268
2022-04-01 14:31:03.730041,-6.230930328369141,0.8395724892616272,3.4720592498779297,-0.06944286823272705,-0.06774216890335083,0.7422240972518921,2022-04-01 14:31:02.36811
2022-04-01 14:31:03.730041,-12.643143653869629,-1.6795114278793335,11.334654808044434,-0.08140575885772705,-0.07164841890335083,0.7280639410018921,2022-04-01 14:31:02.37353
2022-04-01 14:31:03.730041,-17.07062530517578,-4.0917253494262695,17.0140438079834,-0.08824169635772705,-0.07946091890335083,0.7148803472518921,2022-04-01 14:31:02.37896
2022-04-01 14:31:03.730041,-16.597341537475586,-4.641343593597412,18.846105575561523,-0.10948193073272705,-0.07970505952835083,0.6865600347518921,2022-04-01 14:31:02.38439
2022-04-01 14:31:03.745710,-14.704212188720703,-2.7024121284484863,17.07511329650879,-0.12754833698272705,-0.09679490327835083,0.6738647222518921,2022-04-01 14:31:02.38982
2022-04-01 14:31:03.745710,-10.124059677124023,-1.7405800819396973,11.258318901062012,-0.13975536823272705,-0.08385545015335083,0.6733764410018921,2022-04-01 14:31:02.39525
2022-04-01 14:31:03.745710,-4.078258514404297,-1.0688244104385376,4.571295738220215,-0.14024364948272705,-0.08922654390335083,0.6694701910018921,2022-04-01 14:31:02.40068
2022-04-01 14:31:03.745710,1.7690696716308594,-0.1680610626935959,-1.3371009826660156,-0.14097607135772705,-0.09215623140335083,0.6697143316268921,2022-04-01 14:31:02.40611
2022-04-01 14:31:03.745710,5.814870834350586,0.5800305008888245,-5.367635726928711,-0.13145458698272705,-0.09044724702835083,0.6736205816268921,2022-04-01 14:31:02.41154
2022-04-01 14:31:03.745710,8.639298439025879,1.5418626070022583,-7.3676347732543945,-0.12364208698272705,-0.07994920015335083,0.6819213628768921,2022-04-01 14:31:02.41696
2022-04-01 14:31:03.782955,10.028611183166504,1.6029313802719116,-7.672978401184082,-0.11021435260772705,-0.08141404390335083,0.6877807378768921,2022-04-01 14:31:02.42239
2022-04-01 14:31:03.782955,9.601130485534668,0.641099214553833,-7.153894424438477,-0.11143505573272705,-0.08629685640335083,0.6938842535018921,2022-04-01 14:31:02.42782
2022-04-01 14:31:03.782955,7.952275276184082,0.7174351215362549,-5.917253494262695,-0.10899364948272705,-0.08165818452835083,0.7036498785018921,2022-04-01 14:31:02.43325
2022-04-01 14:31:03.782955,5.066779613494873,0.7021679282188416,-3.718780279159546,-0.10630810260772705,-0.07897263765335083,0.7109740972518921,2022-04-01 14:31:02.43868
2022-04-01 14:31:03.782955,1.906474232673645,0.22888551652431488,-1.3065664768218994,-0.09556591510772705,-0.08214646577835083,0.7065795660018921,2022-04-01 14:31:02.44411
2022-04-01 14:31:03.782955,-1.360701322555542,-0.47340458631515503,1.197250247001648,-0.10386669635772705,-0.07653123140335083,0.7165893316268921,2022-04-01 14:31:02.44954
2022-04-01 14:31:03.782955,-4.047724723815918,-0.9619542360305786,3.8079371452331543,-0.10215771198272705,-0.07921677827835083,0.7126830816268921,2022-04-01 14:31:02.45497
2022-04-01 14:31:03.798918,-6.001922607421875,-1.267297625541687,6.159082412719727,-0.10435497760772705,-0.07653123140335083,0.6994994878768921,2022-04-01 14:31:02.46039
2022-04-01 14:31:03.798918,-6.719479560852051,-1.3130991458892822,7.4109907150268555,-0.10630810260772705,-0.07677537202835083,0.7070678472518921,2022-04-01 14:31:02.46582
2022-04-01 14:31:03.798918,-6.566807746887207,-1.7405800819396973,7.334654808044434,-0.11338818073272705,-0.08263474702835083,0.6865600347518921,2022-04-01 14:31:02.47125
2022-04-01 14:31:03.798918,-4.856884956359863,-1.4810380935668945,6.067479133605957,-0.11875927448272705,-0.09142380952835083,0.7004760503768921,2022-04-01 14:31:02.47668
2022-04-01 14:31:03.798918,-2.8416173458099365,-0.7634809017181396,3.991143226623535,-0.12193310260772705,-0.08727341890335083,0.6853393316268921,2022-04-01 14:31:02.48211
2022-04-01 14:31:03.798918,-0.7347471714019775,-0.35126715898513794,1.6857998371124268,-0.12364208698272705,-0.08678513765335083,0.6865600347518921,2022-04-01 14:31:02.48754
2022-04-01 14:31:03.830177,1.7385352849960327,-0.06119083613157272,-0.573742151260376,-0.11875927448272705,-0.08312302827835083,0.6892455816268921,2022-04-01 14:31:02.49297
2022-04-01 14:31:03.830177,3.3721232414245605,0.09148092567920685,-2.1615283489227295,-0.11631786823272705,-0.08165818452835083,0.6953490972518921,2022-04-01 14:31:02.49840
2022-04-01 14:31:03.830177,4.196550369262695,0.3204885721206665,-2.970688581466675,-0.11973583698272705,-0.08849412202835083,0.6938842535018921,2022-04-01 14:31:02.50383
2022-04-01 14:31:03.830177,4.532428741455078,0.41209161281585693,-3.138627767562866,-0.11558544635772705,-0.07726365327835083,0.6921752691268921,2022-04-01 14:31:02.50925
2022-04-01 14:31:03.830177,3.6469321250915527,0.3204885721206665,-2.3752686977386475,-0.11192333698272705,-0.07701951265335083,0.7051147222518921,2022-04-01 14:31:02.51468
2022-04-01 14:31:03.830177,2.6545658111572266,0.01514504849910736,-1.535574197769165,-0.10801708698272705,-0.08483201265335083,0.6963256597518921,2022-04-01 14:31:02.52011
2022-04-01 14:31:03.845800,1.47899329662323,-0.1375267058610916,-0.37526893615722656,-0.10679638385772705,-0.08068162202835083,0.7092651128768921,2022-04-01 14:31:02.52554
2022-04-01 14:31:03.845800,-0.10879302024841309,-0.47340458631515503,0.8003036975860596,-0.11216747760772705,-0.07799607515335083,0.7048705816268921,2022-04-01 14:31:02.53097
2022-04-01 14:31:03.845800,-1.4065029621124268,-0.5650076270103455,1.9911433458328247,-0.10923779010772705,-0.08654099702835083,0.7073119878768921,2022-04-01 14:31:02.53640
2022-04-01 14:31:03.845800,-2.185128927230835,-0.7634809017181396,2.8461050987243652,-0.10850536823272705,-0.08678513765335083,0.6982787847518921,2022-04-01 14:31:02.54183
2022-04-01 14:31:03.845800,-2.8721516132354736,-1.038290023803711,3.533128261566162,-0.11216747760772705,-0.08702927827835083,0.6997436285018921,2022-04-01 14:31:02.54726
2022-04-01 14:31:03.845800,-2.750014543533325,-0.7329465746879578,3.5483951568603516,-0.11387646198272705,-0.08068162202835083,0.6941283941268921,2022-04-01 14:31:02.55268
2022-04-01 14:31:03.845800,-2.2309305667877197,-0.7482137680053711,3.3346548080444336,-0.11875927448272705,-0.08507615327835083,0.6831420660018921,2022-04-01 14:31:02.55811
2022-04-01 14:31:03.867936,-1.467571496963501,-0.6108091473579407,2.494960069656372,-0.11265575885772705,-0.08629685640335083,0.6924194097518921,2022-04-01 14:31:02.56354
2022-04-01 14:31:03.867936,152.0744171142578,-73.19096374511719,-59.260765075683594,-0.09703075885772705,-0.08312302827835083,0.1980346441268921,2022-04-01 14:31:02.56897
2022-04-01 14:31:03.867936,311.2347106933594,-54.106990814208984,-405.1233825683594,-1.187118649482727,-0.8006523251533508,0.4726928472518921,2022-04-01 14:31:02.57440
2022-04-01 14:31:03.867936,302.99041748046875,52.09148025512695,-272.314208984375,-0.643417477607727,0.38098829984664917,0.4079955816268921,2022-04-01 14:31:02.57983
2022-04-01 14:31:03.867936,139.52479553222656,126.58003234863281,-103.1691665649414,0.16468799114227295,-0.9588554501533508,1.630163550376892,2022-04-01 14:31:02.58526
2022-04-01 14:31:03.867936,100.68509674072266,52.96171188354492,6.281219482421875,0.732314944267273,-0.33434373140335083,0.9905151128768921,2022-04-01 14:31:02.59069
2022-04-01 14:31:03.915168,81.58586120605469,2.747969627380371,44.494956970214844,0.18470752239227295,-0.02867966890335083,0.8765014410018921,2022-04-01 14:31:02.59611
2022-04-01 14:31:03.915168,109.34159088134766,-2.534473180770874,-65.73404693603516,-0.17808544635772705,-0.20128709077835083,0.8271850347518921,2022-04-01 14:31:02.60154
2022-04-01 14:31:03.915168,111.66220092773438,18.473161697387695,-136.16152954101562,-0.34996044635772705,-0.15148240327835083,0.7876342535018921,2022-04-01 14:31:02.60697
2022-04-01 14:31:03.915168,90.5629653930664,46.53422927856445,-151.03175354003906,-0.44248974323272705,-0.29454880952835083,0.5898803472518921,2022-04-01 14:31:02.61240
2022-04-01 14:31:03.915168,74.63929748535156,90.35102081298828,-165.21495056152344,-0.548202633857727,-0.17809373140335083,0.6362670660018921,2022-04-01 14:31:02.61783
2022-04-01 14:31:03.915168,37.555328369140625,126.22888946533203,-98.8180160522461,-0.32823193073272705,-0.06408005952835083,0.7204955816268921,2022-04-01 14:31:02.62326
2022-04-01 14:31:03.915168,9.051512718200684,137.9082794189453,-24.955421447753906,-0.12583935260772705,-0.02965623140335083,0.8271850347518921,2022-04-01 14:31:02.62869
2022-04-01 14:31:03.930781,24.22708511352539,132.12200927734375,-58.19206619262695,0.05165088176727295,-0.02892380952835083,0.8911498785018921,2022-04-01 14:31:02.63412
2022-04-01 14:31:03.930781,40.47135925292969,119.7708740234375,-49.47450637817383,0.21961963176727295,0.17298048734664917,0.9326537847518921,2022-04-01 14:31:02.63955
2022-04-01 14:31:03.930781,64.1202163696289,102.45789337158203,-62.31420135498047,0.31727588176727295,0.17224806547164917,1.026159644126892,2022-04-01 14:31:02.64497
2022-04-01 14:31:03.930781,90.5629653930664,81.80140686035156,-73.91725158691406,0.39051806926727295,0.22229689359664917,1.053015112876892,2022-04-01 14:31:02.65040
2022-04-01 14:31:03.930781,161.87594604492188,54.48843002319336,-171.55084228515625,0.41566455364227295,-0.16198045015335083,0.8581908941268921,2022-04-01 14:31:02.65583
2022-04-01 14:31:03.930781,205.11257934570312,33.893009185791016,-446.5737609863281,0.42054736614227295,-0.36827927827835083,1.210485816001892,2022-04-01 14:31:02.66126
2022-04-01 14:31:03.946418,122.59349822998047,10.992243766784668,-214.10044860839844,0.623184084892273,-0.09777146577835083,1.140173316001892,2022-04-01 14:31:02.66669
2022-04-01 14:31:03.946418,79.52479553222656,-30.38180160522461,-157.61190795898438,0.505020022392273,-0.5047538876533508,1.269323706626892,2022-04-01 14:31:02.67212
2022-04-01 14:31:03.946418,60.94464111328125,-62.71767807006836,-205.64244079589844,0.42079150676727295,-0.5877617001533508,1.143591284751892,2022-04-01 14:31:02.67755
2022-04-01 14:31:03.946418,8.349222183227539,-73.86271667480469,-141.1386260986328,0.32264697551727295,-0.5130546689033508,1.084509253501892,2022-04-01 14:31:02.68298
2022-04-01 14:31:03.946418,-29.360700607299805,-76.33599853515625,-134.60426330566406,0.18763720989227295,-0.5950859189033508,1.107946753501892,2022-04-01 14:31:02.68840
2022-04-01 14:31:03.946418,-66.79581451416016,-69.98485565185547,-116.5126724243164,0.18934619426727295,-0.41979295015335083,1.021032691001892,2022-04-01 14:31:02.69383
2022-04-01 14:31:03.968335,-102.23092651367188,-65.49630737304688,-75.09282684326172,0.17518603801727295,-0.30114060640335083,1.047888159751892,2022-04-01 14:31:02.69926
2022-04-01 14:31:03.968335,-123.55917358398438,-63.60317611694336,-70.8180160522461,0.17298877239227295,-0.21202927827835083,1.045690894126892,2022-04-01 14:31:02.70469
2022-04-01 14:31:03.968335,-135.177490234375,-67.57263946533203,-50.665348052978516,0.17005908489227295,-0.04918748140335083,1.023229956626892,2022-04-01 14:31:02.71012
2022-04-01 14:31:03.968335,-140.4293975830078,-69.48104095458984,-45.24549865722656,0.14491260051727295,0.00672072172164917,0.9153198003768921,2022-04-01 14:31:02.71555
2022-04-01 14:31:03.968335,-132.97901916503906,-67.328369140625,-51.94778823852539,0.10414111614227295,0.14295119047164917,0.8686889410018921,2022-04-01 14:31:02.72098
2022-04-01 14:31:03.968335,-116.42940521240234,-59.25202941894531,-64.48213958740234,0.04872119426727295,0.23963087797164917,0.8794311285018921,2022-04-01 14:31:02.72641
2022-04-01 14:31:03.968335,-89.84925079345703,-56.13752746582031,-86.45160675048828,0.04359424114227295,0.29968947172164917,0.8032592535018921,2022-04-01 14:31:02.73183
2022-04-01 14:31:03.999595,-67.6507797241211,-41.847450256347656,-95.85618591308594,0.05946338176727295,0.34827345609664917,0.7351440191268921,2022-04-01 14:31:02.73726
2022-04-01 14:31:03.999595,-47.75764846801758,-35.92378616333008,-102.66534423828125,0.07630908489227295,0.33167189359664917,0.7324584722518921,2022-04-01 14:31:02.74269
2022-04-01 14:31:03.999595,-27.40650177001953,-35.053558349609375,-119.15390014648438,0.09388720989227295,0.29846876859664917,0.7678588628768921,2022-04-01 14:31:02.74812
2022-04-01 14:31:03.999595,-12.124059677124023,-30.9008846282959,-129.21495056152344,0.10633838176727295,0.26428908109664917,0.7856811285018921,2022-04-01 14:31:02.75355
2022-04-01 14:31:03.999595,-2.398869276046753,-27.465770721435547,-141.96304321289062,0.14027392864227295,0.14563673734664917,0.7773803472518921,2022-04-01 14:31:02.75898
2022-04-01 14:31:03.999595,4.410290718078613,-27.633708953857422,-153.230224609375,0.20057666301727295,0.13342970609664917,0.7793334722518921,2022-04-01 14:31:02.76441
2022-04-01 14:31:04.015219,5.4789934158325195,-29.206228256225586,-156.90960693359375,0.22938525676727295,0.08728712797164917,0.7400268316268921,2022-04-01 14:31:02.76984
2022-04-01 14:31:04.015219,4.257619380950928,-28.33599853515625,-161.84091186523438,0.25306689739227295,0.14319533109664917,0.8147338628768921,2022-04-01 14:31:02.77527
2022-04-01 14:31:04.015219,-3.146960973739624,-30.473403930664062,-129.8256378173828,0.26478564739227295,0.19959181547164917,0.8171752691268921,2022-04-01 14:31:02.78069
2022-04-01 14:31:04.015219,1.6316649913787842,-27.832181930541992,-133.3065643310547,0.26063525676727295,0.25574415922164917,0.8232787847518921,2022-04-01 14:31:02.78612
2022-04-01 14:31:04.015219,15.753802299499512,-24.39706802368164,-133.85618591308594,0.27845752239227295,0.30237501859664917,0.6931518316268921,2022-04-01 14:31:02.79155
2022-04-01 14:31:04.015219,30.22708511352539,-22.58027458190918,-139.0164794921875,0.30555713176727295,0.33435744047164917,0.7400268316268921,2022-04-01 14:31:02.79698
2022-04-01 14:31:04.046809,50.02861022949219,-13.450504302978516,-157.18441772460938,0.30091845989227295,0.35462111234664917,0.7212280035018921,2022-04-01 14:31:02.80241
2022-04-01 14:31:04.046809,64.91410827636719,-7.22149658203125,-160.57373046875,0.33534228801727295,0.37268751859664917,0.7507690191268921,2022-04-01 14:31:02.80784
2022-04-01 14:31:04.046809,75.95227813720703,-5.282565116882324,-157.47450256347656,0.38221728801727295,0.37976759672164917,0.8349975347518921,2022-04-01 14:31:02.81327
2022-04-01 14:31:04.046809,86.51715850830078,-11.190961837768555,-160.95541381835938,0.42787158489227295,0.34851759672164917,0.7890990972518921,2022-04-01 14:31:02.81870
2022-04-01 14:31:04.046809,84.80723571777344,-11.923786163330078,-151.6729736328125,0.44056689739227295,0.33435744047164917,0.8149780035018921,2022-04-01 14:31:02.82412
2022-04-01 14:31:04.046809,84.95990753173828,-22.290197372436523,-136.2073211669922,0.504531741142273,0.32166212797164917,0.8274291753768921,2022-04-01 14:31:02.82955
2022-04-01 14:31:04.046809,87.35685729980469,-24.58027458190918,-131.1538848876953,0.46522510051727295,0.35999220609664917,0.8406127691268921,2022-04-01 14:31:02.83498
2022-04-01 14:31:04.068776,96.97517395019531,-36.58027267456055,-130.7111358642578,0.511855959892273,0.39002150297164917,0.7961791753768921,2022-04-01 14:31:02.84041
2022-04-01 14:31:04.068776,99.35685729980469,-42.183326721191406,-124.7264175415039,0.45521533489227295,0.34094923734664917,0.8291381597518921,2022-04-01 14:31:02.84584
2022-04-01 14:31:04.068776,95.0973129272461,-42.58027267456055,-106.65007781982422,0.44593799114227295,0.38709181547164917,0.8318237066268921,2022-04-01 14:31:02.85127
2022-04-01 14:31:04.068776,92.08968353271484,-42.70241165161133,-80.11573028564453,0.43324267864227295,0.43591994047164917,0.8459838628768921,2022-04-01 14:31:02.85670
2022-04-01 14:31:04.068776,107.81487274169922,-36.19859313964844,-111.52030944824219,0.39613330364227295,0.34021681547164917,0.8389037847518921,2022-04-01 14:31:02.86213
2022-04-01 14:31:04.068776,122.7919692993164,-39.1298942565918,-116.83328247070312,0.41664111614227295,0.41443556547164917,0.8113158941268921,2022-04-01 14:31:02.86755
2022-04-01 14:31:04.100066,141.55532836914062,-35.92378616333008,-138.60426330566406,0.30091845989227295,0.40979689359664917,0.7859252691268921,2022-04-01 14:31:02.87298
2022-04-01 14:31:04.100066,152.9751739501953,-17.465770721435547,-160.08518981933594,0.24696338176727295,0.38611525297164917,0.7593139410018921,2022-04-01 14:31:02.87841
2022-04-01 14:31:04.100066,154.9751739501953,7.618198394775391,-159.70350646972656,0.26185595989227295,0.37390822172164917,0.7649291753768921,2022-04-01 14:31:02.88384
2022-04-01 14:31:04.100066,156.73089599609375,28.717435836791992,-162.1309814453125,0.35780322551727295,0.38367384672164917,0.7861694097518921,2022-04-01 14:31:02.88927
2022-04-01 14:31:04.100066,156.5171661376953,39.053314208984375,-152.772216796875,0.46571338176727295,0.43567579984664917,0.8530639410018921,2022-04-01 14:31:02.89470
2022-04-01 14:31:04.100066,159.73854064941406,39.373924255371094,-141.35235595703125,0.591689944267273,0.48963087797164917,0.9265502691268921,2022-04-01 14:31:02.90013
2022-04-01 14:31:04.100066,167.89120483398438,32.10675048828125,-137.16915893554688,0.652236819267273,0.5289375185966492,0.9795287847518921,2022-04-01 14:31:02.90556
2022-04-01 14:31:04.115669,189.2041778564453,22.076213836669922,-140.11572265625,0.672012209892273,0.6085273623466492,0.9953979253768921,2022-04-01 14:31:02.91099
2022-04-01 14:31:04.115669,218.80723571777344,15.389190673828125,-165.3218231201172,0.651992678642273,0.6156074404716492,1.016394019126892,2022-04-01 14:31:02.91641
2022-04-01 14:31:04.115669,235.66220092773438,12.030411720275879,-173.73403930664062,0.673965334892273,0.5950996279716492,0.9900268316268921,2022-04-01 14:31:02.92184
2022-04-01 14:31:04.115669,242.41029357910156,7.267053127288818,-168.49740600585938,0.647109866142273,0.5333320498466492,1.009313941001892,2022-04-01 14:31:02.92727
2022-04-01 14:31:04.115669,245.92173767089844,7.9998779296875,-163.29129028320312,0.606094241142273,0.5023261904716492,1.042028784751892,2022-04-01 14:31:02.93270
2022-04-01 14:31:04.115669,249.92173767089844,13.373923301696777,-167.26075744628906,0.576797366142273,0.43640822172164917,1.035192847251892,2022-04-01 14:31:02.93813
2022-04-01 14:31:04.146944,243.32632446289062,20.778505325317383,-161.33709716796875,0.588760256767273,0.41687697172164917,1.062536597251892,2022-04-01 14:31:02.94356
2022-04-01 14:31:04.146944,233.96754455566406,21.648733139038086,-150.8638153076172,0.619033694267273,0.41443556547164917,1.098181128501892,2022-04-01 14:31:02.94899
2022-04-01 14:31:04.146944,231.43319702148438,20.64109992980957,-148.6958770751953,0.640029788017273,0.43225783109664917,1.128210425376892,2022-04-01 14:31:02.95442
2022-04-01 14:31:04.146944,234.4713592529297,21.557130813598633,-153.8256378173828,0.648330569267273,0.49744337797164917,1.145056128501892,2022-04-01 14:31:02.95984
2022-04-01 14:31:04.146944,243.5706024169922,23.28232192993164,-165.52029418945312,0.651748538017273,0.5233222842216492,1.164587378501892,2022-04-01 14:31:02.96527
2022-04-01 14:31:04.146944,242.99044799804688,19.60293197631836,-167.9019775390625,0.742812991142273,0.5191718935966492,1.165563941001892,2022-04-01 14:31:02.97070
2022-04-01 14:31:04.169111,236.36448669433594,14.457893371582031,-157.10809326171875,0.744277834892273,0.5164863467216492,1.220007300376892,2022-04-01 14:31:02.97613
2022-04-01 14:31:04.169111,234.65457153320312,10.961709976196289,-163.50503540039062,0.738906741142273,0.5057441592216492,1.226599097251892,2022-04-01 14:31:02.98156
2022-04-01 14:31:04.169111,225.47898864746094,3.862473249435425,-155.5813751220703,0.804092288017273,0.49866408109664917,1.210485816001892,2022-04-01 14:31:02.98699
2022-04-01 14:31:04.169111,211.00570678710938,-1.8627175092697144,-142.80274963378906,0.773086428642273,0.48938673734664917,1.287145972251892,2022-04-01 14:31:02.99242
2022-04-01 14:31:04.169111,205.87594604492188,-11.496305465698242,-143.64244079589844,0.736465334892273,0.5020820498466492,1.280310034751892,2022-04-01 14:31:02.99785
2022-04-01 14:31:04.169111,195.509521484375,-13.374168395996094,-139.8103790283203,0.685928225517273,0.5094062685966492,1.239050269126892,2022-04-01 14:31:03.32700
2022-04-01 14:31:04.169111,182.80723571777344,-24.12225914001465,-131.5813751220703,0.725234866142273,0.5072090029716492,1.135290503501892,2022-04-01 14:31:03.87000
2022-04-01 14:31:04.185043,158.9599151611328,-24.13752555847168,-114.83328247070312,0.682754397392273,0.49426954984664917,1.179479956626892,2022-04-01 14:31:03.14130
2022-04-01 14:31:04.185043,141.9522705078125,-24.71767807006836,-102.61954498291016,0.664443850517273,0.5106269717216492,1.150183081626892,2022-04-01 14:31:03.19560
2022-04-01 14:31:04.185043,133.29579162597656,-25.16042709350586,-111.23023223876953,0.615859866142273,0.5501777529716492,1.147253394126892,2022-04-01 14:31:03.24990
2022-04-01 14:31:04.185043,119.34159088134766,-21.404701232910156,-101.82565307617188,0.609268069267273,0.5916816592216492,1.125769019126892,2022-04-01 14:31:03.30420
2022-04-01 14:31:04.185043,105.17365264892578,-19.23676300048828,-93.94779205322266,0.597549319267273,0.5960761904716492,1.138708472251892,2022-04-01 14:31:03.35850
2022-04-01 14:31:04.185043,91.29578399658203,-11.145160675048828,-89.53557586669922,0.638564944267273,0.6610175967216492,1.138708472251892,2022-04-01 14:31:03.41280
2022-04-01 14:31:04.216047,82.76143646240234,-12.229129791259766,-79.82565307617188,0.684951663017273,0.7320625185966492,1.140905737876892,2022-04-01 14:31:03.46710
2022-04-01 14:31:04.216047,80.89884185791016,-12.626076698303223,-79.04702758789062,0.701553225517273,0.7535468935966492,1.192663550376892,2022-04-01 14:31:03.52130
2022-04-01 14:31:04.216047,84.68509674072266,-18.855083465576172,-88.36000061035156,0.738906741142273,0.8031074404716492,1.143591284751892,2022-04-01 14:31:03.57560
2022-04-01 14:31:04.216047,87.73853302001953,-24.565006256103516,-89.53557586669922,0.765029788017273,0.8646308779716492,1.122106909751892,2022-04-01 14:31:03.62990
2022-04-01 14:31:04.216047,88.77670288085938,-38.70241165161133,-81.88671875,0.748184084892273,0.8597480654716492,1.114050269126892,2022-04-01 14:31:03.68420
2022-04-01 14:31:04.216047,87.96754455566406,-41.03828811645508,-80.1004638671875,0.671523928642273,0.8336250185966492,1.088659644126892,2022-04-01 14:31:03.73850
2022-04-01 14:31:04.216047,84.59349822998047,-37.58790588378906,-78.60427856445312,0.651748538017273,0.8182441592216492,1.100134253501892,2022-04-01 14:31:03.79280
2022-04-01 14:31:04.337240,82.77670288085938,-78.59554290771484,-78.11573028564453,0.43885791301727295,1.290656328201294,0.9411987066268921,2022-04-01 14:31:03.22586
2022-04-01 14:31:04.337240,106.53242492675781,-51.92378616333008,-96.13099670410156,0.48231494426727295,1.372199296951294,0.8845580816268921,2022-04-01 14:31:03.23128
2022-04-01 14:31:04.337240,130.79197692871094,-59.389434814453125,-103.18443298339844,0.640273928642273,1.301886796951294,0.8164428472518921,2022-04-01 14:31:03.23671
2022-04-01 14:31:04.337240,154.71563720703125,-70.79401397705078,-120.2836685180664,0.618057131767273,1.232062578201294,0.8423217535018921,2022-04-01 14:31:03.24214
2022-04-01 14:31:04.337240,167.73854064941406,-61.450504302978516,-129.18441772460938,0.48426806926727295,1.171271562576294,0.8940795660018921,2022-04-01 14:31:03.24757
2022-04-01 14:31:04.337240,164.56295776367188,-40.74821472167969,-131.38290405273438,0.49891650676727295,1.083136796951294,0.8911498785018921,2022-04-01 14:31:03.25300
2022-04-01 14:31:04.369328,156.65457153320312,-27.81691551208496,-130.31419372558594,0.561172366142273,1.069464921951294,0.9507201910018921,2022-04-01 14:31:03.25843
2022-04-01 14:31:04.369328,155.24998474121094,-24.855083465576172,-133.35235595703125,0.674941897392273,1.132453203201294,0.9321655035018921,2022-04-01 14:31:03.26386
2022-04-01 14:31:04.369328,153.90647888183594,-27.16042709350586,-130.9248809814453,0.713516116142273,1.179816484451294,0.9548705816268921,2022-04-01 14:31:03.26929
2022-04-01 14:31:04.369328,148.04388427734375,-33.1146240234375,-122.78748321533203,0.788223147392273,1.199591875076294,0.9433959722518921,2022-04-01 14:31:03.27471
2022-04-01 14:31:04.369328,142.05914306640625,-46.213863372802734,-113.15390014648438,0.820449709892273,1.203253984451294,0.9258178472518921,2022-04-01 14:31:03.28014
2022-04-01 14:31:04.369328,134.0133514404297,-56.0001220703125,-101.33710479736328,0.818984866142273,1.229132890701294,0.9140990972518921,2022-04-01 14:31:03.28557
2022-04-01 14:31:04.386442,130.50189208984375,-66.0459213256836,-95.06229400634766,0.767471194267273,1.264533281326294,0.9140990972518921,2022-04-01 14:31:03.29100
2022-04-01 14:31:04.386442,128.66983032226562,-72.50393676757812,-86.74168395996094,0.743301272392273,1.271613359451294,0.8669799566268921,2022-04-01 14:31:03.29643
2022-04-01 14:31:04.386442,125.5400619506836,-75.19096374511719,-86.0699234008789,0.678359866142273,1.263312578201294,0.8411010503768921,2022-04-01 14:31:03.30186
2022-04-01 14:31:04.386442,116.07441711425781,-73.86271667480469,-74.23786926269531,0.638809084892273,1.225959062576294,0.8025268316268921,2022-04-01 14:31:03.30729
2022-04-01 14:31:04.386442,105.0973129272461,-71.41996765136719,-67.18443298339844,0.590713381767273,1.172980546951294,0.7610229253768921,2022-04-01 14:31:03.31272
2022-04-01 14:31:04.386442,92.2118148803711,-65.45050048828125,-60.11573028564453,0.553604006767273,1.200080156326294,0.7576049566268921,2022-04-01 14:31:03.31815
2022-04-01 14:31:04.433320,81.41792297363281,-50.74821472167969,-50.68061447143555,0.550918459892273,1.314582109451294,0.7505248785018921,2022-04-01 14:31:03.32357
2022-04-01 14:31:04.433320,85.24998474121094,-42.992488861083984,-51.428707122802734,0.589004397392273,1.416877031326294,0.7934936285018921,2022-04-01 14:31:03.32900
2022-04-01 14:31:04.433320,100.76143646240234,-41.52684020996094,-64.772216796875,0.636611819267273,1.509894609451294,0.7995971441268921,2022-04-01 14:31:03.33443
2022-04-01 14:31:04.433320,119.051513671875,-43.19095993041992,-73.42870330810547,0.672256350517273,1.570685625076294,0.8201049566268921,2022-04-01 14:31:03.33986
2022-04-01 14:31:04.433320,138.19654846191406,-43.389434814453125,-83.82565307617188,0.680557131767273,1.574591875076294,0.8205932378768921,2022-04-01 14:31:03.34529
2022-04-01 14:31:04.433320,159.24998474121094,-46.30546569824219,-97.15390014648438,0.694229006767273,1.585822343826294,0.8718627691268921,2022-04-01 14:31:03.35072
2022-04-01 14:31:04.433320,177.00570678710938,-47.03828811645508,-110.5126724243164,0.695449709892273,1.542121171951294,0.8618530035018921,2022-04-01 14:31:03.35615
2022-04-01 14:31:04.433320,183.0667724609375,-51.48103713989258,-109.42870330810547,0.729873538017273,1.431525468826294,0.8320678472518921,2022-04-01 14:31:03.36158
2022-04-01 14:31:04.433320,170.13548278808594,-52.38180160522461,-92.42107391357422,0.753799319267273,1.330939531326294,0.8242553472518921,2022-04-01 14:31:03.36700
2022-04-01 14:31:04.433320,153.29579162597656,-60.168060302734375,-77.94779205322266,0.765029788017273,1.254767656326294,0.8108276128768921,2022-04-01 14:31:03.37243
2022-04-01 14:31:04.433320,135.6316680908203,-68.80928039550781,-64.63481140136719,0.752334475517273,1.229865312576294,0.7632201910018921,2022-04-01 14:31:03.37786
2022-04-01 14:31:04.433320,113.84540557861328,-71.49630737304688,-47.91725540161133,0.693252444267273,1.238654375076294,0.7598022222518921,2022-04-01 14:31:03.38329
2022-04-01 14:31:04.433320,98.6087646484375,-73.69477844238281,-35.9019889831543,0.638809084892273,1.285773515701294,0.7302612066268921,2022-04-01 14:31:03.38872
2022-04-01 14:31:04.464908,88.73090362548828,-68.94668579101562,-32.619544982910156,0.602432131767273,1.355841875076294,0.6892455816268921,2022-04-01 14:31:03.39415
2022-04-01 14:31:04.464908,85.29578399658203,-65.87798309326172,-28.833284378051758,0.568008303642273,1.403205156326294,0.6533569097518921,2022-04-01 14:31:03.39958
2022-04-01 14:31:04.464908,85.18891906738281,-58.39706802368164,-30.298933029174805,0.540908694267273,1.470587968826294,0.6631225347518921,2022-04-01 14:31:03.40501
2022-04-01 14:31:04.464908,93.26525115966797,-50.931419372558594,-37.718780517578125,0.531143069267273,1.516730546951294,0.6726440191268921,2022-04-01 14:31:03.41043
2022-04-01 14:31:04.469417,102.8683090209961,-47.08409118652344,-44.0851936340332,0.583633303642273,1.546759843826294,0.6411498785018921,2022-04-01 14:31:03.41586
2022-04-01 14:31:04.469417,109.92174530029297,-49.92378616333008,-41.886722564697266,0.618545413017273,1.465216875076294,0.6064819097518921,2022-04-01 14:31:03.42129
2022-04-01 14:31:04.485054,106.30342102050781,-50.32073211669922,-44.13099670410156,0.602187991142273,1.342902421951294,0.6116088628768921,2022-04-01 14:31:03.42672
2022-04-01 14:31:04.485054,92.6545639038086,-53.22149658203125,-24.573741912841797,0.594375491142273,1.329718828201294,0.6184448003768921,2022-04-01 14:31:03.43215
2022-04-01 14:31:04.485054,82.6545639038086,-52.91615295410156,-50.31420135498047,0.563125491142273,1.090705156326294,0.5217651128768921,2022-04-01 14:31:03.43758
2022-04-01 14:31:04.485054,52.776702880859375,-44.961952209472656,-4.573741912841797,0.536025881767273,1.245978593826294,0.5613158941268921,2022-04-01 14:31:03.44301
2022-04-01 14:31:04.485054,31.463726043701172,-38.27492904663086,0.4949601888656616,0.514297366142273,1.162726640701294,0.5403198003768921,2022-04-01 14:31:03.44844
2022-04-01 14:31:04.485054,23.814870834350586,-33.95431900024414,-8.894352912902832,0.504531741142273,1.334845781326294,0.5527709722518921,2022-04-01 14:31:03.45387
2022-04-01 14:31:04.485054,16.272886276245117,-24.687143325805664,8.159082412719727,0.511367678642273,1.434699296951294,0.5466674566268921,2022-04-01 14:31:03.45929
2022-04-01 14:31:04.500970,22.944643020629883,-21.313098907470703,-5.749314308166504,0.537002444267273,1.468634843826294,0.5415405035018921,2022-04-01 14:31:03.46472
2022-04-01 14:31:04.500970,26.975175857543945,-18.2138614654541,-4.970688819885254,0.562881350517273,1.519660234451294,0.5452026128768921,2022-04-01 14:31:03.47015
2022-04-01 14:31:04.516329,30.333955764770508,-16.870349884033203,-3.505039930343628,0.600967288017273,1.481818437576294,0.5654662847518921,2022-04-01 14:31:03.47558
2022-04-01 14:31:04.516329,33.9675407409668,-20.32073211669922,-12.650077819824219,0.615859866142273,1.413703203201294,0.5666869878768921,2022-04-01 14:31:03.48101
2022-04-01 14:31:04.516329,27.478994369506836,-22.259662628173828,-7.703513145446777,0.616836428642273,1.365363359451294,0.5647338628768921,2022-04-01 14:31:03.48644
2022-04-01 14:31:04.516329,15.295787811279297,-22.855083465576172,0.1438150405883789,0.599014163017273,1.321662187576294,0.5447143316268921,2022-04-01 14:31:03.49187
2022-04-01 14:31:04.532114,2.104947566986084,-21.633708953857422,7.38045597076416,0.578750491142273,1.320197343826294,0.5334838628768921,2022-04-01 14:31:03.49730
2022-04-01 14:31:04.532114,-8.948487281799316,-18.870349884033203,15.120914459228516,0.557998538017273,1.354132890701294,0.5132201910018921,2022-04-01 14:31:03.50272
2022-04-01 14:31:04.532114,-16.597341537475586,-15.053557395935059,17.884273529052734,0.557266116142273,1.370734453201294,0.5146850347518921,2022-04-01 14:31:03.50815
2022-04-01 14:31:04.532114,-21.742380142211914,-12.213862419128418,19.6705322265625,0.554824709892273,1.400519609451294,0.5200561285018921,2022-04-01 14:31:03.51358
2022-04-01 14:31:04.532114,-25.71184539794922,-9.343633651733398,22.43389129638672,0.560928225517273,1.422736406326294,0.5217651128768921,2022-04-01 14:31:03.51901
2022-04-01 14:31:04.532114,-27.146961212158203,-6.763481140136719,22.449159622192383,0.582168459892273,1.455939531326294,0.5207885503768921,2022-04-01 14:31:03.52444
2022-04-01 14:31:04.532114,-26.0477237701416,-4.36653470993042,24.189617156982422,0.589004397392273,1.521613359451294,0.5393432378768921,2022-04-01 14:31:03.52987
2022-04-01 14:31:04.565174,-16.475204467773438,-2.4123358726501465,17.53312873840332,0.596572756767273,1.584845781326294,0.5559448003768921,2022-04-01 14:31:03.53530
2022-04-01 14:31:04.565174,-5.269098281860352,-2.4428701400756836,12.006410598754883,0.624893069267273,1.606086015701294,0.5373901128768921,2022-04-01 14:31:03.54073
2022-04-01 14:31:04.565174,2.425558090209961,-4.168061256408691,9.884273529052734,0.638564944267273,1.542365312576294,0.5354369878768921,2022-04-01 14:31:03.54615
2022-04-01 14:31:04.565174,3.967542886734009,-6.229129791259766,10.98351001739502,0.633926272392273,1.462287187576294,0.5542358160018921,2022-04-01 14:31:03.55158
2022-04-01 14:31:04.565174,1.0973138809204102,-6.381801605224609,13.502593994140625,0.615371584892273,1.420050859451294,0.5661987066268921,2022-04-01 14:31:03.55701
2022-04-01 14:31:04.565174,-2.612609624862671,-5.282565116882324,16.601829528808594,0.599258303642273,1.423468828201294,0.5854858160018921,2022-04-01 14:31:03.56244
2022-04-01 14:31:04.585617,-3.28436541557312,-3.3130991458892822,15.227785110473633,0.589736819267273,1.429084062576294,0.5959838628768921,2022-04-01 14:31:03.56787
2022-04-01 14:31:04.585617,-1.3759684562683105,-1.4810380935668945,10.998777389526367,0.597793459892273,1.440070390701294,0.5801147222518921,2022-04-01 14:31:03.57330
2022-04-01 14:31:04.585617,1.1889169216156006,-1.267297625541687,9.5636625289917,0.607559084892273,1.441535234451294,0.5806030035018921,2022-04-01 14:31:03.57873
2022-04-01 14:31:04.585617,5.051512718200684,-1.771114468574524,4.60183048248291,0.603652834892273,1.434943437576294,0.5913451910018921,2022-04-01 14:31:03.58416
2022-04-01 14:31:04.585617,7.830138206481934,-1.8321831226348877,0.9224411249160767,0.605605959892273,1.431525468826294,0.5920776128768921,2022-04-01 14:31:03.58959
2022-04-01 14:31:04.585617,7.67746639251709,-1.771114468574524,0.7545021772384644,0.609023928642273,1.403937578201294,0.5945190191268921,2022-04-01 14:31:03.59501
2022-04-01 14:31:04.648099,5.417924880981445,-2.0001220703125,0.5254944562911987,0.615127444267273,1.368781328201294,0.5796264410018921,2022-04-01 14:31:03.60044
2022-04-01 14:31:04.648099,0.7919703722000122,-2.1222596168518066,3.349921941757202,0.607559084892273,1.366095781326294,0.5952514410018921,2022-04-01 14:31:03.60587
2022-04-01 14:31:04.648099,0.08968043327331543,0.41209161281585693,2.357555627822876,0.591201663017273,1.422492265701294,0.6218627691268921,2022-04-01 14:31:03.61130
2022-04-01 14:31:04.648099,8.532428741455078,1.3586565256118774,-6.024123191833496,0.620742678642273,1.524054765701294,0.6106323003768921,2022-04-01 14:31:03.61673
2022-04-01 14:31:04.648099,20.379756927490234,0.24415268003940582,-10.787482261657715,0.639297366142273,1.552863359451294,0.6040405035018921,2022-04-01 14:31:03.62216
2022-04-01 14:31:04.648099,32.21181869506836,-3.8779847621917725,-19.214963912963867,0.658340334892273,1.522101640701294,0.6035522222518921,2022-04-01 14:31:03.62759
2022-04-01 14:31:04.648099,37.64693069458008,-8.015389442443848,-21.932519912719727,0.668350100517273,1.463752031326294,0.6059936285018921,2022-04-01 14:31:03.63302
2022-04-01 14:31:04.648099,35.555328369140625,-10.152793884277344,-19.581375122070312,0.670059084892273,1.412726640701294,0.6152709722518921,2022-04-01 14:31:03.63844
2022-04-01 14:31:04.648099,29.402658462524414,-12.366534233093262,-14.28366470336914,0.665420413017273,1.402472734451294,0.6120971441268921,2022-04-01 14:31:03.64387
2022-04-01 14:31:04.648099,23.96754264831543,-14.946686744689941,-8.497406005859375,0.672744631767273,1.418586015701294,0.6223510503768921,2022-04-01 14:31:03.64930
2022-04-01 14:31:04.648099,22.54769515991211,-17.43523597717285,-7.5813751220703125,0.661514163017273,1.474494218826294,0.6203979253768921,2022-04-01 14:31:03.65473
2022-04-01 14:31:04.648099,27.356855392456055,-20.96195411682129,-7.963054656982422,0.675674319267273,1.531378984451294,0.5896362066268921,2022-04-01 14:31:03.66016
2022-04-01 14:31:04.648099,34.86830520629883,-25.053556442260742,-11.21496295928955,0.659316897392273,1.538703203201294,0.5786498785018921,2022-04-01 14:31:03.66559
2022-04-01 14:31:04.701621,41.265254974365234,-27.328365325927734,-14.894351959228516,0.639053225517273,1.510627031326294,0.5691283941268921,2022-04-01 14:31:03.67102
2022-04-01 14:31:04.701621,46.62403106689453,-27.03829002380371,-18.72641372680664,0.595107913017273,1.482062578201294,0.5720580816268921,2022-04-01 14:31:03.67645
2022-04-01 14:31:04.701621,49.173648834228516,-23.771114349365234,-20.360000610351562,0.583389163017273,1.479621171951294,0.5679076910018921,2022-04-01 14:31:03.68187
2022-04-01 14:31:04.701621,50.86830520629883,-23.084091186523438,-16.405803680419922,0.602676272392273,1.452277421951294,0.5376342535018921,2022-04-01 14:31:03.68730
2022-04-01 14:31:04.701621,51.83013916015625,-24.45813751220703,-22.90962028503418,0.596328616142273,1.391974687576294,0.5359252691268921,2022-04-01 14:31:03.69273
2022-04-01 14:31:04.701621,46.837772369384766,-24.305465698242188,-20.024124145507812,0.592666506767273,1.359259843826294,0.5217651128768921,2022-04-01 14:31:03.69816
2022-04-01 14:31:04.701621,37.63166427612305,-24.59554100036621,-13.810382843017578,0.583877444267273,1.318976640701294,0.4961303472518921,2022-04-01 14:31:03.70359
2022-04-01 14:31:04.732593,27.37212371826172,-23.61844253540039,-9.031757354736328,0.571670413017273,1.309943437576294,0.4827026128768921,2022-04-01 14:31:03.70902
2022-04-01 14:31:04.732593,17.280519485473633,-22.38180160522461,-4.787482261657715,0.558486819267273,1.312628984451294,0.4761108160018921,2022-04-01 14:31:03.71445
2022-04-01 14:31:04.732593,7.58586311340332,-20.244396209716797,0.5102273225784302,0.550186038017273,1.323859453201294,0.4612182378768921,2022-04-01 14:31:03.71988
2022-04-01 14:31:04.732593,-0.49047231674194336,-18.168060302734375,4.113280773162842,0.553115725517273,1.340216875076294,0.4612182378768921,2022-04-01 14:31:03.72531
2022-04-01 14:31:04.732593,-6.566807746887207,-14.626076698303223,6.815570831298828,0.534072756767273,1.375617265701294,0.4768432378768921,2022-04-01 14:31:03.73073
2022-04-01 14:31:04.732593,-8.795815467834473,-10.610809326171875,7.563662528991699,0.538223147392273,1.421027421951294,0.4621948003768921,2022-04-01 14:31:03.73616
2022-04-01 14:31:04.748541,-9.360701560974121,-8.626076698303223,9.349922180175781,0.558486819267273,1.435920000076294,0.4509643316268921,2022-04-01 14:31:03.74159
2022-04-01 14:31:04.748541,-10.108792304992676,-8.015389442443848,9.487326622009277,0.568252444267273,1.423712968826294,0.4590209722518921,2022-04-01 14:31:03.74702
2022-04-01 14:31:04.748541,-13.956121444702148,-7.664244651794434,12.357555389404297,0.574844241142273,1.388556718826294,0.4685424566268921,2022-04-01 14:31:03.75245
2022-04-01 14:31:04.748541,-20.41413688659668,-6.824549674987793,16.342288970947266,0.577529788017273,1.374884843826294,0.4739135503768921,2022-04-01 14:31:03.75788
2022-04-01 14:31:04.748541,-27.40650177001953,-4.794015407562256,20.082746505737305,0.575088381767273,1.384894609451294,0.4856323003768921,2022-04-01 14:31:03.76331
2022-04-01 14:31:04.748541,-31.192760467529297,-3.252030372619629,21.869007110595703,0.591201663017273,1.433478593826294,0.4868530035018921,2022-04-01 14:31:03.76874
2022-04-01 14:31:04.801991,-31.925586700439453,-2.3818013668060303,23.762136459350586,0.591689944267273,1.470832109451294,0.4822143316268921,2022-04-01 14:31:03.77416
2022-04-01 14:31:04.801991,-29.45230484008789,-1.3283663988113403,23.594196319580078,0.602432131767273,1.506232500076294,0.4966186285018921,2022-04-01 14:31:03.77959
2022-04-01 14:31:04.801991,-24.582075119018555,-1.6489770412445068,20.449159622192383,0.606582522392273,1.508185625076294,0.4961303472518921,2022-04-01 14:31:03.78502
2022-04-01 14:31:04.801991,-19.95612144470215,-2.5192060470581055,18.464426040649414,0.618789553642273,1.487189531326294,0.5073608160018921,2022-04-01 14:31:03.79045
2022-04-01 14:31:04.801991,-18.001922607421875,-3.862717390060425,16.678165435791016,0.622451663017273,1.452277421951294,0.5212768316268921,2022-04-01 14:31:03.79588
2022-04-01 14:31:04.801991,-20.99428939819336,-5.267297744750977,19.15144920349121,0.621963381767273,1.406378984451294,0.5207885503768921,2022-04-01 14:31:03.80131
2022-04-01 14:31:04.801991,-27.482837677001953,-6.030656814575195,24.11328125,0.629043459892273,1.375617265701294,0.5151733160018921,2022-04-01 14:31:03.80674
2022-04-01 14:31:04.817371,-35.40650177001953,-7.053557395935059,29.33465576171875,0.633437991142273,1.364386796951294,0.5227416753768921,2022-04-01 14:31:03.81217
2022-04-01 14:31:04.817371,-42.75001525878906,-8.519206047058105,34.87663650512695,0.621475100517273,1.374396562576294,0.5281127691268921,2022-04-01 14:31:03.81759
2022-04-01 14:31:04.832999,-47.25382995605469,-8.732946395874023,38.02167510986328,0.614639163017273,1.408087968826294,0.5276244878768921,2022-04-01 14:31:03.82302
2022-04-01 14:31:04.832999,-47.284366607666016,-8.732946395874023,38.7850341796875,0.608779788017273,1.442267656326294,0.5303100347518921,2022-04-01 14:31:03.82845
2022-04-01 14:31:04.832999,-44.81108093261719,-8.38180160522461,36.556026458740234,0.604629397392273,1.441291093826294,0.5198119878768921,2022-04-01 14:31:03.83388
2022-04-01 14:31:04.832999,-42.96375274658203,-7.572641372680664,34.44915771484375,0.597305178642273,1.426154375076294,0.5122436285018921,2022-04-01 14:31:03.83931
2022-04-01 14:31:04.870868,-44.91795349121094,-6.794015407562256,35.4720573425293,0.602432131767273,1.374640703201294,0.5112670660018921,2022-04-01 14:31:03.84474
2022-04-01 14:31:04.870868,-50.85688400268555,-5.71004581451416,38.494956970214844,0.603164553642273,1.337531328201294,0.5227416753768921,2022-04-01 14:31:03.85017
2022-04-01 14:31:04.870868,-59.1469612121582,-4.244397163391113,43.777400970458984,0.608047366142273,1.319709062576294,0.5400756597518921,2022-04-01 14:31:03.85560
2022-04-01 14:31:04.870868,-66.06298828125,-3.2672977447509766,47.19725036621094,0.617812991142273,1.331916093826294,0.5427612066268921,2022-04-01 14:31:03.86103
2022-04-01 14:31:04.870868,-69.97138977050781,-3.496305227279663,50.05221176147461,0.632949709892273,1.369269609451294,0.5388549566268921,2022-04-01 14:31:03.86645
2022-04-01 14:31:04.870868,-71.54390716552734,-5.084091663360596,51.54839324951172,0.630020022392273,1.380988359451294,0.5432494878768921,2022-04-01 14:31:03.87188
2022-04-01 14:31:04.870868,-73.04009246826172,-6.244397163391113,52.5407600402832,0.620742678642273,1.365607500076294,0.5432494878768921,2022-04-01 14:31:03.87731
2022-04-01 14:31:04.902446,-75.89505004882812,-5.389435291290283,53.94533920288086,0.617812991142273,1.350959062576294,0.5525268316268921,2022-04-01 14:31:03.88274
2022-04-01 14:31:04.902446,-80.73474884033203,-3.5115723609924316,56.84610366821289,0.617568850517273,1.338752031326294,0.5469115972518921,2022-04-01 14:31:03.88817
2022-04-01 14:31:04.902446,-88.29199981689453,-1.9848549365997314,62.58656311035156,0.632461428642273,1.316046953201294,0.5520385503768921,2022-04-01 14:31:03.89360
2022-04-01 14:31:04.902446,-97.22329711914062,-0.9924885630607605,69.50259399414062,0.643936038017273,1.309455156326294,0.5632690191268921,2022-04-01 14:31:03.89903
2022-04-01 14:31:04.902446,-100.35306549072266,1.496061086654663,71.7163314819336,0.642471194267273,1.398566484451294,0.5774291753768921,2022-04-01 14:31:03.90446
2022-04-01 14:31:04.902446,-93.49810791015625,1.9540762901306152,67.74686431884766,0.669570803642273,1.487189531326294,0.5830444097518921,2022-04-01 14:31:03.90988
2022-04-01 14:31:04.949141,-81.86451721191406,-0.626076340675354,63.28885269165039,0.685928225517273,1.508918046951294,0.5698608160018921,2022-04-01 14:31:03.91531
2022-04-01 14:31:04.949141,-69.37596893310547,-4.229129791259766,55.9148063659668,0.684219241142273,1.475470781326294,0.5730346441268921,2022-04-01 14:31:03.92074
2022-04-01 14:31:04.949141,-62.902687072753906,-6.473404884338379,50.14381408691406,0.669814944267273,1.410529375076294,0.5644897222518921,2022-04-01 14:31:03.92617
2022-04-01 14:31:04.949141,-64.61260986328125,-6.0917253494262695,51.99114227294922,0.645400881767273,1.324591875076294,0.5715698003768921,2022-04-01 14:31:03.93160
2022-04-01 14:31:04.949141,-73.45230102539062,-2.8092823028564453,58.174346923828125,0.641982913017273,1.268683671951294,0.5452026128768921,2022-04-01 14:31:03.93703
2022-04-01 14:31:04.949141,-86.16986083984375,0.6105648875236511,67.59419250488281,0.648330569267273,1.222296953201294,0.5747436285018921,2022-04-01 14:31:03.94246
2022-04-01 14:31:04.971250,-100.88742065429688,1.679267168045044,78.69342803955078,0.667373538017273,1.189093828201294,0.5847533941268921,2022-04-01 14:31:03.94789
2022-04-01 14:31:04.971250,-117.86451721191406,1.7250688076019287,91.227783203125,0.667373538017273,1.184943437576294,0.6343139410018921,2022-04-01 14:31:03.95331
2022-04-01 14:31:04.971250,-129.26910400390625,1.5571298599243164,98.2964859008789,0.694229006767273,1.223029375076294,0.6326049566268921,2022-04-01 14:31:03.95874
2022-04-01 14:31:04.971250,-135.20802307128906,0.7632366418838501,101.74686431884766,0.694229006767273,1.270392656326294,0.6467651128768921,2022-04-01 14:31:03.96417
2022-04-01 14:31:04.971250,-136.90267944335938,-0.06119083613157272,104.02167510986328,0.712539553642273,1.323615312576294,0.6308959722518921,2022-04-01 14:31:03.96960
2022-04-01 14:31:04.971250,-136.2767333984375,-2.5192060470581055,106.20487976074219,0.719619631767273,1.329962968826294,0.6345580816268921,2022-04-01 14:31:03.97503
2022-04-01 14:31:04.971250,-135.3912353515625,-4.977221488952637,106.51022338867188,0.706924319267273,1.300910234451294,0.6321166753768921,2022-04-01 14:31:03.98046
2022-04-01 14:31:05.018463,-133.9713897705078,-5.496305465698242,104.76976776123047,0.685684084892273,1.302375078201294,0.6548217535018921,2022-04-01 14:31:03.98589
2022-04-01 14:31:05.018463,-130.56680297851562,-6.473404884338379,100.44915771484375,0.665908694267273,1.298712968826294,0.6728881597518921,2022-04-01 14:31:03.99132
2022-04-01 14:31:05.018463,-129.63551330566406,-3.282564878463745,101.60945892333984,0.655410647392273,1.265753984451294,0.6521362066268921,2022-04-01 14:31:03.99675
2022-04-01 14:31:05.018463,-131.68130493164062,-1.0993587970733643,102.18961334228516,0.656875491142273,1.225226640701294,0.6372436285018921,2022-04-01 14:31:04.21700
2022-04-01 14:31:05.018463,-138.61260986328125,1.6334656476974487,104.7392349243164,0.658828616142273,1.155402421951294,0.6438354253768921,2022-04-01 14:31:04.76000
2022-04-01 14:31:05.018463,-153.28436279296875,6.671633243560791,116.08274841308594,0.680801272392273,1.123908281326294,0.6272338628768921,2022-04-01 14:31:04.13030
2022-04-01 14:31:05.054438,-169.78817749023438,10.183083534240723,128.4796905517578,0.698135256767273,1.099250078201294,0.6726440191268921,2022-04-01 14:31:04.18460
2022-04-01 14:31:05.054438,-182.88742065429688,15.038045883178711,137.89955139160156,0.732314944267273,1.138556718826294,0.6970580816268921,2022-04-01 14:31:04.23890
2022-04-01 14:31:05.054438,-188.88742065429688,13.343389511108398,145.3041229248047,0.787979006767273,1.198371171951294,0.7151244878768921,2022-04-01 14:31:04.29320
2022-04-01 14:31:05.054438,-190.33779907226562,9.404458045959473,147.16671752929688,0.806777834892273,1.200324296951294,0.7244018316268921,2022-04-01 14:31:04.34750
2022-04-01 14:31:05.054438,-192.490478515625,4.946442604064941,149.3041229248047,0.817520022392273,1.210578203201294,0.7534545660018921,2022-04-01 14:31:04.40180
2022-04-01 14:31:05.054438,-189.13169860839844,4.564763069152832,149.83847045898438,0.812881350517273,1.293586015701294,0.7717651128768921,2022-04-01 14:31:04.45600
2022-04-01 14:31:05.087529,-168.03245544433594,0.7479694485664368,132.66290283203125,0.833389163017273,1.407111406326294,0.7536987066268921,2022-04-01 14:31:04.51030
2022-04-01 14:31:05.087529,-138.45993041992188,-7.297832012176514,116.64762878417969,0.841689944267273,1.480109453201294,0.7419799566268921,2022-04-01 14:31:04.56460
2022-04-01 14:31:05.087529,-106.93321990966797,-15.923786163330078,97.21251678466797,0.809707522392273,1.450080156326294,0.7009643316268921,2022-04-01 14:31:04.61890
2022-04-01 14:31:05.087529,-80.97901916503906,-19.37416648864746,78.14381408691406,0.739395022392273,1.359748125076294,0.6758178472518921,2022-04-01 14:31:04.67320
2022-04-01 14:31:05.087529,-65.00955963134766,-15.633709907531738,68.05220794677734,0.687148928642273,1.262824296951294,0.6633666753768921,2022-04-01 14:31:04.72750
2022-04-01 14:31:05.087529,-58.68894577026367,-7.8474507331848145,62.31175231933594,0.643936038017273,1.145392656326294,0.6465209722518921,2022-04-01 14:31:04.78180
2022-04-01 14:31:05.087529,-62.001922607421875,1.373923659324646,63.28885269165039,0.646133303642273,1.057990312576294,0.6560424566268921,2022-04-01 14:31:04.83610
2022-04-01 14:31:05.118699,-73.22329711914062,9.129648208618164,71.9300765991211,0.672012209892273,0.9918281435966492,0.6631225347518921,2022-04-01 14:31:04.89030
2022-04-01 14:31:05.118699,-89.86451721191406,12.351022720336914,83.8537368774414,0.724014163017273,0.9371406435966492,0.6953490972518921,2022-04-01 14:31:04.94460
2022-04-01 14:31:05.118699,-110.5057373046875,10.961709976196289,100.44915771484375,0.769912600517273,0.8941718935966492,0.7119506597518921,2022-04-01 14:31:04.99890
2022-04-01 14:31:05.118699,-133.833984375,8.351022720336914,118.75450134277344,0.797744631767273,0.8651191592216492,0.7539428472518921,2022-04-01 14:31:04.10532
2022-04-01 14:31:05.118699,-156.88742065429688,1.3281221389770508,137.70108032226562,0.827773928642273,0.8463203310966492,0.7451537847518921,2022-04-01 14:31:04.11075
2022-04-01 14:31:05.118699,-178.6278839111328,-2.397068738937378,153.91481018066406,0.806533694267273,0.8494941592216492,0.7746948003768921,2022-04-01 14:31:04.11618
2022-04-01 14:31:05.134325,-200.10879516601562,-4.488671779632568,170.72396850585938,0.798232913017273,0.8504707217216492,0.7685912847518921,2022-04-01 14:31:04.12161
2022-04-01 14:31:05.134325,-219.0400848388672,-4.351267337799072,185.31939697265625,0.786270022392273,0.8536445498466492,0.7656615972518921,2022-04-01 14:31:04.12704
2022-04-01 14:31:05.134325,-235.1622314453125,-5.450503826141357,198.769775390625,0.800430178642273,0.8780586123466492,0.7588256597518921,2022-04-01 14:31:04.13247
2022-04-01 14:31:05.134325,-250.33779907226562,-5.313099384307861,211.45680236816406,0.811660647392273,0.8841621279716492,0.7724975347518921,2022-04-01 14:31:04.13789
2022-04-01 14:31:05.134325,-263.26910400390625,-5.771114826202393,223.6552734375,0.820449709892273,0.9163886904716492,0.7651733160018921,2022-04-01 14:31:04.14332
2022-04-01 14:31:05.134325,-272.1087951660156,-5.862717628479004,233.99114990234375,0.829727053642273,0.9188300967216492,0.7864135503768921,2022-04-01 14:31:04.14875
2022-04-01 14:31:05.134325,-278.33782958984375,-8.106992721557617,240.20489501953125,0.845107913017273,0.9281074404716492,0.7773803472518921,2022-04-01 14:31:04.15418
2022-04-01 14:31:05.188140,-284.7042236328125,-11.007756233215332,251.16671752929688,0.862686038017273,0.9122382998466492,0.8005737066268921,2022-04-01 14:31:04.15961
2022-04-01 14:31:05.188140,-289.68133544921875,-14.015389442443848,259.6399841308594,0.856582522392273,0.8866035342216492,0.8005737066268921,2022-04-01 14:31:04.16504
2022-04-01 14:31:05.188140,-292.8569030761719,-16.488670349121094,266.1590881347656,0.845596194267273,0.8770820498466492,0.8027709722518921,2022-04-01 14:31:04.17047
2022-04-01 14:31:05.188140,-293.3759765625,-17.404701232910156,269.1972351074219,0.835586428642273,0.8709785342216492,0.8088744878768921,2022-04-01 14:31:04.17590
2022-04-01 14:31:05.188140,-285.0859069824219,-18.33599853515625,262.2812194824219,0.825820803642273,0.9168769717216492,0.7866576910018921,2022-04-01 14:31:04.18132
2022-04-01 14:31:05.188140,-264.58209228515625,-18.946685791015625,247.5331268310547,0.814102053642273,0.9781562685966492,0.7607787847518921,2022-04-01 14:31:04.18675
2022-04-01 14:31:05.203778,-234.07826232910156,-21.801647186279297,221.45680236816406,0.804092288017273,1.020148515701294,0.7314819097518921,2022-04-01 14:31:04.19218
2022-04-01 14:31:05.203778,-204.24620056152344,-23.023021697998047,203.99114990234375,0.778945803642273,1.020392656326294,0.7043823003768921,2022-04-01 14:31:04.19761
2022-04-01 14:31:05.219086,-176.2003936767578,-20.6566104888916,182.72396850585938,0.754287600517273,0.9552070498466492,0.6682494878768921,2022-04-01 14:31:04.20304
2022-04-01 14:31:05.219086,-154.52101135253906,-17.633708953857422,172.72396850585938,0.737930178642273,0.9012519717216492,0.6819213628768921,2022-04-01 14:31:04.20847
2022-04-01 14:31:05.219086,-143.9713897705078,-14.64134407043457,167.16671752929688,0.723037600517273,0.7935859560966492,0.6907104253768921,2022-04-01 14:31:04.21390
2022-04-01 14:31:05.219086,-151.36070251464844,-11.435236930847168,198.4033660888672,0.763809084892273,0.7232734560966492,0.6948608160018921,2022-04-01 14:31:04.21933
2022-04-01 14:31:05.250404,-159.5286407470703,-12.274931907653809,220.0064239501953,0.769424319267273,0.5885078310966492,0.7099975347518921,2022-04-01 14:31:04.22475
2022-04-01 14:31:05.250404,-160.8568878173828,-18.091724395751953,205.94534301757812,0.759170413017273,0.48425978422164917,0.7236694097518921,2022-04-01 14:31:04.23018
2022-04-01 14:31:05.250404,-167.7576446533203,-20.6566104888916,209.31939697265625,0.761611819267273,0.49329298734664917,0.7170776128768921,2022-04-01 14:31:04.23561
2022-04-01 14:31:05.250404,-175.7423858642578,-23.16042709350586,217.27359008789062,0.735000491142273,0.46375197172164917,0.7031615972518921,2022-04-01 14:31:04.24104
2022-04-01 14:31:05.250404,-176.7347412109375,-22.45813751220703,202.70870971679688,0.696426272392273,0.43469923734664917,0.6838744878768921,2022-04-01 14:31:04.24647
2022-04-01 14:31:05.250404,-177.71185302734375,-19.267297744750977,193.1209259033203,0.686904788017273,0.44666212797164917,0.6521362066268921,2022-04-01 14:31:04.25190
2022-04-01 14:31:05.250404,-181.4675750732422,-16.076457977294922,190.70870971679688,0.692764163017273,0.45032423734664917,0.6431030035018921,2022-04-01 14:31:04.25733
2022-04-01 14:31:05.288754,-184.8110809326172,-14.503938674926758,186.64764404296875,0.695205569267273,0.42932814359664917,0.6653198003768921,2022-04-01 14:31:04.26276
2022-04-01 14:31:05.288754,-192.56680297851562,-14.259664535522461,189.24305725097656,0.727920413017273,0.43640822172164917,0.6670287847518921,2022-04-01 14:31:04.26819
2022-04-01 14:31:05.288754,-204.2003936767578,-16.106992721557617,203.2888641357422,0.753799319267273,0.43299025297164917,0.6721557378768921,2022-04-01 14:31:04.27361
2022-04-01 14:31:05.288754,-211.14695739746094,-22.091724395751953,210.12855529785156,0.765273928642273,0.41223829984664917,0.6697143316268921,2022-04-01 14:31:04.27904
2022-04-01 14:31:05.288754,-212.56680297851562,-29.007755279541016,207.05984497070312,0.742080569267273,0.43469923734664917,0.6592162847518921,2022-04-01 14:31:04.28447
2022-04-01 14:31:05.288754,-209.2996368408203,-34.65660858154297,206.87664794921875,0.725479006767273,0.48889845609664917,0.6250365972518921,2022-04-01 14:31:04.28990
2022-04-01 14:31:05.337899,-202.8110809326172,-38.626075744628906,203.89955139160156,0.671035647392273,0.48938673734664917,0.6252807378768921,2022-04-01 14:31:04.29533
2022-04-01 14:31:05.337899,-192.6431427001953,-39.63370895385742,192.5560302734375,0.641738772392273,0.49671095609664917,0.5525268316268921,2022-04-01 14:31:04.30076
2022-04-01 14:31:05.337899,-180.4293975830078,-37.96958541870117,183.76214599609375,0.603652834892273,0.5177070498466492,0.5088256597518921,2022-04-01 14:31:04.30619
2022-04-01 14:31:05.338897,-166.12405395507812,-34.290199279785156,171.76214599609375,0.565078616142273,0.49744337797164917,0.5090698003768921,2022-04-01 14:31:04.31162
2022-04-01 14:31:05.338897,-155.87979125976562,-29.710044860839844,161.39573669433594,0.557021975517273,0.44031447172164917,0.5105346441268921,2022-04-01 14:31:04.31704
2022-04-01 14:31:05.338897,-151.13169860839844,-26.946685791015625,159.68580627441406,0.557266116142273,0.40515822172164917,0.5212768316268921,2022-04-01 14:31:04.32247
2022-04-01 14:31:05.338897,-152.6431427001953,-24.274930953979492,162.83084106445312,0.575332522392273,0.33704298734664917,0.5156615972518921,2022-04-01 14:31:04.32790
2022-04-01 14:31:05.356306,-159.57444763183594,-24.39706802368164,168.78504943847656,0.590469241142273,0.28259962797164917,0.5066283941268921,2022-04-01 14:31:04.33333
2022-04-01 14:31:05.356306,-169.177490234375,-25.93905258178711,178.20489501953125,0.608047366142273,0.26624220609664917,0.5119994878768921,2022-04-01 14:31:04.33876
2022-04-01 14:31:05.356306,-174.09352111816406,-28.809282302856445,180.64764404296875,0.619521975517273,0.28113478422164917,0.4941772222518921,2022-04-01 14:31:04.34419
2022-04-01 14:31:05.356306,-173.42176818847656,-32.488670349121094,178.9835205078125,0.603408694267273,0.30823439359664917,0.4797729253768921,2022-04-01 14:31:04.34962
2022-04-01 14:31:05.356306,-169.3912353515625,-36.931419372558594,173.50259399414062,0.577285647392273,0.32800978422164917,0.4914916753768921,2022-04-01 14:31:04.35505
2022-04-01 14:31:05.356306,-171.6202392578125,-39.49630355834961,185.25833129882812,0.593887209892273,0.36878126859664917,0.4595092535018921,2022-04-01 14:31:04.36047
2022-04-01 14:31:05.389018,-172.7347412109375,-45.267295837402344,199.31939697265625,0.597061038017273,0.35681837797164917,0.4582885503768921,2022-04-01 14:31:04.36590
2022-04-01 14:31:05.389018,-169.57444763183594,-52.09172439575195,198.2506866455078,0.593887209892273,0.31140822172164917,0.4309448003768921,2022-04-01 14:31:04.37133
2022-04-01 14:31:05.389018,-170.21566772460938,-58.4276008605957,195.15145874023438,0.575332522392273,0.26673048734664917,0.4333862066268921,2022-04-01 14:31:04.37676
2022-04-01 14:31:05.389018,-177.65077209472656,-64.42760467529297,204.61709594726562,0.538467288017273,0.23792189359664917,0.4375365972518921,2022-04-01 14:31:04.38219
2022-04-01 14:31:05.389018,-185.65077209472656,-68.2596664428711,212.51023864746094,0.49037158489227295,0.19910353422164917,0.4245971441268921,2022-04-01 14:31:04.38762
2022-04-01 14:31:05.389018,-191.63551330566406,-67.84745025634766,210.12855529785156,0.43885791301727295,0.16126173734664917,0.3713744878768921,2022-04-01 14:31:04.39305
2022-04-01 14:31:05.420282,-196.21566772460938,-65.557373046875,204.96824645996094,0.42127978801727295,0.17542189359664917,0.3266967535018921,2022-04-01 14:31:04.39848
2022-04-01 14:31:05.420282,-197.34542846679688,-63.63370895385742,201.10565185546875,0.38563525676727295,0.19715040922164917,0.3323119878768921,2022-04-01 14:31:04.40391
2022-04-01 14:31:05.420282,-195.2538299560547,-60.992488861083984,189.54840087890625,0.34632861614227295,0.22302931547164917,0.2856811285018921,2022-04-01 14:31:04.40933
2022-04-01 14:31:05.420282,-190.09352111816406,-56.01538848876953,182.5560302734375,0.32801806926727295,0.25940626859664917,0.2536987066268921,2022-04-01 14:31:04.41476
2022-04-01 14:31:05.420282,-179.2385711669922,-52.168060302734375,169.39573669433594,0.28749072551727295,0.33069533109664917,0.2168334722518921,2022-04-01 14:31:04.42019
2022-04-01 14:31:05.420282,-159.63551330566406,-45.52684020996094,153.50259399414062,0.25892627239227295,0.41736525297164917,0.1941283941268921,2022-04-01 14:31:04.42562
2022-04-01 14:31:05.420282,-136.8110809326172,-37.404701232910156,138.06748962402344,0.23622119426727295,0.43738478422164917,0.1499389410018921,2022-04-01 14:31:04.43105
2022-04-01 14:31:05.451518,-113.51337432861328,-30.565006256103516,119.1819839477539,0.24232470989227295,0.42078322172164917,0.1457885503768921,2022-04-01 14:31:04.43648
2022-04-01 14:31:05.451518,-93.7881851196289,-24.38180160522461,108.86137390136719,0.24305713176727295,0.40857619047164917,0.1562865972518921,2022-04-01 14:31:04.44191
2022-04-01 14:31:05.451518,-75.5744400024414,-20.99248695373535,96.41862487792969,0.24256885051727295,0.32288283109664917,0.1616576910018921,2022-04-01 14:31:04.44734
2022-04-01 14:31:05.451518,-67.08589172363281,-16.473403930664062,86.34228515625,0.24867236614227295,0.24207228422164917,0.1677612066268921,2022-04-01 14:31:04.45276
2022-04-01 14:31:05.451518,-65.08589172363281,-14.885618209838867,84.00640869140625,0.27748095989227295,0.20398634672164917,0.1821655035018921,2022-04-01 14:31:04.45819
2022-04-01 14:31:05.451518,-68.15459442138672,-15.450504302978516,88.23542022705078,0.28749072551727295,0.16980665922164917,0.1914428472518921,2022-04-01 14:31:04.46362
2022-04-01 14:31:05.489134,-72.67367553710938,-15.786381721496582,88.25068664550781,0.29066455364227295,0.13465040922164917,0.2082885503768921,2022-04-01 14:31:04.46905
2022-04-01 14:31:05.489134,-79.05535888671875,-15.862717628479004,90.40335845947266,0.30873095989227295,0.12464064359664917,0.1816772222518921,2022-04-01 14:31:04.47448
2022-04-01 14:31:05.489134,-87.8797836303711,-18.045923233032227,98.86137390136719,0.32484424114227295,0.12610548734664917,0.2056030035018921,2022-04-01 14:31:04.47991
2022-04-01 14:31:05.489134,-97.7881851196289,-21.252029418945312,104.64762878417969,0.33900439739227295,0.10633009672164917,0.2082885503768921,2022-04-01 14:31:04.48534
2022-04-01 14:31:05.489134,-109.52864074707031,-27.43523597717285,112.63236236572266,0.34681689739227295,0.10022658109664917,0.2285522222518921,2022-04-01 14:31:04.49077
2022-04-01 14:31:05.489134,-123.69657897949219,-34.32073211669922,127.227783203125,0.34217822551727295,0.11951369047164917,0.1865600347518921,2022-04-01 14:31:04.49619
2022-04-01 14:31:05.489134,-133.95611572265625,-40.213863372802734,137.1361846923828,0.33290088176727295,0.10999220609664917,0.2146362066268921,2022-04-01 14:31:04.50162
2022-04-01 14:31:05.520141,-144.55154418945312,-45.51156997680664,141.71633911132812,0.30604541301727295,0.10120314359664917,0.1848510503768921,2022-04-01 14:31:04.50705
2022-04-01 14:31:05.520141,-155.9866485595703,-49.95431900024414,146.64764404296875,0.29432666301727295,0.11633986234664917,0.1892455816268921,2022-04-01 14:31:04.51248
2022-04-01 14:31:05.520141,-162.52101135253906,-55.29783248901367,152.4033660888672,0.27284228801727295,0.14246290922164917,0.1423705816268921,2022-04-01 14:31:04.51791
2022-04-01 14:31:05.520141,-169.86451721191406,-59.557373046875,153.82321166992188,0.25111377239227295,0.14343947172164917,0.1308959722518921,2022-04-01 14:31:04.52334
2022-04-01 14:31:05.520141,-176.55154418945312,-62.488670349121094,161.9606170654297,0.22279345989227295,0.17249220609664917,0.1272338628768921,2022-04-01 14:31:04.52877
2022-04-01 14:31:05.520141,-183.9255828857422,-66.27493286132812,169.50259399414062,0.19300830364227295,0.17957228422164917,0.11478269100189209,2022-04-01 14:31:04.53420
2022-04-01 14:31:05.577349,-186.948486328125,-67.00775146484375,172.998779296875,0.17420947551727295,0.19544142484664917,0.04739987850189209,2022-04-01 14:31:04.53963
2022-04-01 14:31:05.577349,-187.49810791015625,-68.36653137207031,168.80030822753906,0.13783252239227295,0.19324415922164917,0.09696042537689209,2022-04-01 14:31:04.54505
2022-04-01 14:31:05.577349,-188.16986083984375,-67.31309509277344,163.15145874023438,0.13734424114227295,0.18982619047164917,0.03323972225189209,2022-04-01 14:31:04.55048
2022-04-01 14:31:05.577349,-193.2996368408203,-67.96958923339844,168.0980224609375,0.13880908489227295,0.18591994047164917,0.00565183162689209,2022-04-01 14:31:04.55591
2022-04-01 14:31:05.577349,-195.07061767578125,-70.77874755859375,166.311767578125,0.10414111614227295,0.20984572172164917,0.03592526912689209,2022-04-01 14:31:04.56134
2022-04-01 14:31:05.577349,-190.5057373046875,-76.1833267211914,144.72396850585938,0.05580127239227295,0.20593947172164917,-0.03707277774810791,2022-04-01 14:31:04.56677
2022-04-01 14:31:05.595456,-175.13169860839844,-71.5115737915039,107.1819839477539,-0.00791943073272705,0.20789259672164917,-0.10494387149810791,2022-04-01 14:31:04.57220
2022-04-01 14:31:05.595456,-170.0477294921875,-58.595542907714844,102.64762878417969,-0.04795849323272705,0.34583204984664917,-0.11715090274810791,2022-04-01 14:31:04.57763
2022-04-01 14:31:05.595456,-163.6202392578125,-47.81691360473633,112.72396850585938,-0.06211864948272705,0.46131056547164917,-0.08712160587310791,2022-04-01 14:31:04.58306
2022-04-01 14:31:05.595456,-142.76527404785156,-41.710044860839844,95.6247329711914,-0.05137646198272705,0.5128242373466492,-0.09029543399810791,2022-04-01 14:31:04.58848
2022-04-01 14:31:05.595456,-112.41413879394531,-39.96958541870117,71.24304962158203,-0.04869091510772705,0.6285468935966492,-0.1342407464981079,2022-04-01 14:31:04.59391
2022-04-01 14:31:05.595456,-85.17749786376953,-40.25966262817383,53.68579864501953,-0.05821239948272705,0.5819160342216492,-0.1303344964981079,2022-04-01 14:31:04.59934
2022-04-01 14:31:05.595456,-68.0171890258789,-36.82455062866211,45.4720573425293,-0.06724560260772705,0.5089179873466492,-0.1452270746231079,2022-04-01 14:31:04.60477
2022-04-01 14:31:05.642051,-61.80345153808594,-29.847450256347656,43.59419631958008,-0.08750927448272705,0.41052931547164917,-0.08028566837310791,2022-04-01 14:31:04.61020
2022-04-01 14:31:05.642051,-60.62787628173828,-24.2138614654541,43.62472915649414,-0.06700146198272705,0.34290236234664917,-0.1278930902481079,2022-04-01 14:31:04.61563
2022-04-01 14:31:05.642051,-63.46757507324219,-22.97722053527832,41.075111389160156,-0.04185497760772705,0.29383009672164917,-0.12227785587310791,2022-04-01 14:31:04.62106
2022-04-01 14:31:05.642051,-65.37596893310547,-20.412334442138672,42.43389129638672,-0.02891552448272705,0.30603712797164917,-0.1391235589981079,2022-04-01 14:31:04.62649
2022-04-01 14:31:05.642051,-70.2767333984375,-22.626075744628906,47.13618087768555,-0.02793896198272705,0.32483595609664917,-0.1396118402481079,2022-04-01 14:31:04.63191
2022-04-01 14:31:05.642051,-69.10115814208984,-17.893251419067383,42.40335464477539,-0.02647411823272705,0.33362501859664917,-0.09615480899810791,2022-04-01 14:31:04.63734
2022-04-01 14:31:05.673862,-66.85688781738281,-18.549739837646484,40.739234924316406,-0.006942868232727051,0.38269728422164917,-0.1291137933731079,2022-04-01 14:31:04.64277
2022-04-01 14:31:05.673862,-63.14695739746094,-24.274930953979492,43.120914459228516,0.0025786161422729492,0.41883009672164917,-0.10958254337310791,2022-04-01 14:31:04.64820
2022-04-01 14:31:05.673862,-56.0782585144043,-26.931419372558594,39.441524505615234,-0.03477489948272705,0.42322462797164917,-0.1462036371231079,2022-04-01 14:31:04.65363
2022-04-01 14:31:05.673862,-48.459938049316406,-24.427602767944336,30.998777389526367,-0.06333935260772705,0.41175001859664917,-0.1654907464981079,2022-04-01 14:31:04.65906
2022-04-01 14:31:05.673862,-43.65077590942383,-21.43523597717285,26.29648780822754,-0.07481396198272705,0.41297072172164917,-0.1635376214981079,2022-04-01 14:31:04.66449
2022-04-01 14:31:05.673862,-40.88741683959961,-21.862716674804688,32.70869827270508,-0.08433544635772705,0.44055861234664917,-0.1642700433731079,2022-04-01 14:31:04.66992
2022-04-01 14:31:05.691411,-34.459938049316406,-18.51920509338379,29.54839515686035,-0.11412060260772705,0.41614454984664917,-0.1869751214981079,2022-04-01 14:31:04.67535
2022-04-01 14:31:05.691411,-26.704212188720703,-14.961954116821289,18.846105575561523,-0.13121044635772705,0.41321486234664917,-0.1696411371231079,2022-04-01 14:31:04.68077
2022-04-01 14:31:05.691411,-21.314899444580078,-7.343633651733398,14.388090133666992,-0.13755810260772705,0.38660353422164917,-0.1813598871231079,2022-04-01 14:31:04.68620
2022-04-01 14:31:05.691411,-19.101160049438477,-1.877984642982483,11.5636625289917,-0.11192333698272705,0.37683790922164917,-0.2084594964981079,2022-04-01 14:31:04.69163
2022-04-01 14:31:05.691411,-17.20802879333496,1.1754504442214966,12.159082412719727,-0.06993114948272705,0.39246290922164917,-0.1916137933731079,2022-04-01 14:31:04.69706
2022-04-01 14:31:05.691411,-11.956120491027832,-0.8703511357307434,10.968242645263672,-0.04454052448272705,0.40100783109664917,-0.1647583246231079,2022-04-01 14:31:04.70249
2022-04-01 14:31:05.691411,-6.856884002685547,-2.641343355178833,3.4873266220092773,-0.03062450885772705,0.37073439359664917,-0.1413208246231079,2022-04-01 14:31:04.70792
2022-04-01 14:31:05.754245,-5.040090560913086,-7.0230231285095215,4.03694486618042,-0.02037060260772705,0.38416212797164917,-0.1430298089981079,2022-04-01 14:31:04.71335
2022-04-01 14:31:05.754245,-5.620243072509766,-9.633709907531738,10.31175422668457,-0.01817333698272705,0.35999220609664917,-0.1608520746231079,2022-04-01 14:31:04.71878
2022-04-01 14:31:05.754245,-4.994289398193359,-11.481038093566895,6.189616680145264,-0.03965771198272705,0.33679884672164917,-0.1535278558731079,2022-04-01 14:31:04.72420
2022-04-01 14:31:05.754245,-7.940854072570801,-12.137526512145996,11.151449203491211,-0.04502880573272705,0.33508986234664917,-0.1615844964981079,2022-04-01 14:31:04.72963
2022-04-01 14:31:05.754245,-11.177495002746582,-12.503938674926758,16.098012924194336,-0.05381786823272705,0.32923048734664917,-0.1654907464981079,2022-04-01 14:31:04.73506
2022-04-01 14:31:05.754245,-12.047723770141602,-13.771114349365234,14.922441482543945,-0.06260693073272705,0.33460158109664917,-0.1764770746231079,2022-04-01 14:31:04.74049
2022-04-01 14:31:05.776421,-11.986655235290527,-14.732946395874023,14.235418319702148,-0.06724560260772705,0.34778517484664917,-0.1701294183731079,2022-04-01 14:31:04.74592
2022-04-01 14:31:05.776421,-11.543907165527344,-15.12989330291748,13.716334342956543,-0.08409130573272705,0.35437697172164917,-0.1835571527481079,2022-04-01 14:31:04.75135
2022-04-01 14:31:05.776421,-10.61260986328125,-14.168061256408691,11.594197273254395,-0.09727489948272705,0.35437697172164917,-0.1801391839981079,2022-04-01 14:31:04.75678
2022-04-01 14:31:05.776421,-10.291998863220215,-11.923786163330078,10.143815040588379,-0.11509716510772705,0.35950392484664917,-0.1835571527481079,2022-04-01 14:31:04.76221
2022-04-01 14:31:05.776421,-10.307266235351562,-8.687145233154297,10.708701133728027,-0.11241161823272705,0.36707228422164917,-0.1762329339981079,2022-04-01 14:31:04.76763
2022-04-01 14:31:05.776421,-9.77291488647461,-5.664244651794434,8.586563110351562,-0.10581982135772705,0.37073439359664917,-0.1801391839981079,2022-04-01 14:31:04.77306
2022-04-01 14:31:05.776421,-9.879785537719727,-3.7253129482269287,7.243051528930664,-0.09703075885772705,0.36170119047164917,-0.1549926996231079,2022-04-01 14:31:04.77849
2022-04-01 14:31:05.808020,-11.818716049194336,-5.358901023864746,8.80030345916748,-0.08311474323272705,0.36121290922164917,-0.11983644962310791,2022-04-01 14:31:04.78392
2022-04-01 14:31:05.808020,-13.742380142211914,-4.717679500579834,8.525494575500488,-0.08116161823272705,0.35486525297164917,-0.1603637933731079,2022-04-01 14:31:04.78935
2022-04-01 14:31:05.808020,-16.001922607421875,-2.29019832611084,10.372822761535645,-0.06285107135772705,0.37903517484664917,-0.1420532464981079,2022-04-01 14:31:04.79478
2022-04-01 14:31:05.808020,-14.81108283996582,-5.939053535461426,15.82320499420166,-0.04161083698272705,0.41565626859664917,-0.1488891839981079,2022-04-01 14:31:04.80021
2022-04-01 14:31:05.808020,-11.116426467895508,-9.542106628417969,8.60183048248291,-0.04185497760772705,0.38294142484664917,-0.1435180902481079,2022-04-01 14:31:04.80564
2022-04-01 14:31:05.808020,-11.314899444580078,-12.0001220703125,8.479693412780762,-0.04600536823272705,0.37830275297164917,-0.1427856683731079,2022-04-01 14:31:04.81107
2022-04-01 14:31:05.839237,-14.826349258422852,-13.939053535461426,16.89190673828125,-0.05503857135772705,0.37464064359664917,-0.1547485589981079,2022-04-01 14:31:04.81649
2022-04-01 14:31:05.839237,-15.97138786315918,-15.145160675048828,16.525493621826172,-0.07359325885772705,0.36145704984664917,-0.1603637933731079,2022-04-01 14:31:04.82192
2022-04-01 14:31:05.839237,-16.505739212036133,-16.030656814575195,16.11328125,-0.08287060260772705,0.35462111234664917,-0.1718384027481079,2022-04-01 14:31:04.82735
2022-04-01 14:31:05.839237,-17.757648468017578,-16.366533279418945,17.15144920349121,-0.09019482135772705,0.34973829984664917,-0.1859985589981079,2022-04-01 14:31:04.83278
2022-04-01 14:31:05.839237,-19.543907165527344,-16.39706802368164,16.25068473815918,-0.09190380573272705,0.33924025297164917,-0.1808716058731079,2022-04-01 14:31:04.83821
2022-04-01 14:31:05.839237,-22.459938049316406,-18.946685791015625,15.639998435974121,-0.10679638385772705,0.31531447172164917,-0.1891723871231079,2022-04-01 14:31:04.84364
2022-04-01 14:31:05.870493,-26.15459442138672,-12.900885581970215,12.51022720336914,-0.12608349323272705,0.32166212797164917,-0.2091919183731079,2022-04-01 14:31:04.84907
2022-04-01 14:31:05.870493,-29.528640747070312,-9.068824768066406,18.11328125,-0.12754833698272705,0.39368361234664917,-0.2126098871231079,2022-04-01 14:31:04.85450
2022-04-01 14:31:05.870493,-26.856884002685547,-9.725313186645508,17.899539947509766,-0.10020458698272705,0.44251173734664917,-0.2038208246231079,2022-04-01 14:31:04.85992
2022-04-01 14:31:05.870493,-17.925586700439453,-9.053557395935059,10.40335750579834,-0.09190380573272705,0.46179884672164917,-0.1894165277481079,2022-04-01 14:31:04.86535
2022-04-01 14:31:05.870493,-11.437037467956543,-12.946686744689941,8.327021598815918,-0.08311474323272705,0.44007033109664917,-0.1901489496231079,2022-04-01 14:31:04.87078
2022-04-01 14:31:05.870493,-9.330166816711426,-13.664244651794434,5.884273052215576,-0.09800732135772705,0.38587111234664917,-0.1901489496231079,2022-04-01 14:31:04.87621
2022-04-01 14:31:05.870493,-11.406502723693848,-12.763481140136719,7.258318901062012,-0.09629833698272705,0.37464064359664917,-0.1772094964981079,2022-04-01 14:31:04.88164
2022-04-01 14:31:05.921542,-14.688945770263672,-12.824549674987793,12.159082412719727,-0.09410107135772705,0.38098829984664917,-0.1820923089981079,2022-04-01 14:31:04.88707
2022-04-01 14:31:05.921542,-14.673677444458008,-13.71004581451416,11.410990715026855,-0.09873974323272705,0.39295119047164917,-0.1881958246231079,2022-04-01 14:31:04.89250
