sys_time,ax,ay,az,gx,gy,gz,imu_time,mils
2022-04-26 16:32:05.419385,-0.000550292432308197,-0.07327097654342651,1.244869589805603,-1.4637556076049805,1.268274188041687,0.8533133268356323,16:32:3,10566893
2022-04-26 16:32:05.586203,-0.003724120557308197,-0.07009714841842651,1.251949667930603,-1.2194807529449463,1.2224726676940918,0.7159087657928467,16:32:3,10566903
2022-04-26 16:32:05.586203,0.001402832567691803,-0.07546824216842651,1.248775839805603,-1.4026868343353271,1.2072054147720337,0.7464431524276733,16:32:3,10566912
2022-04-26 16:32:05.587344,-0.001282714307308197,-0.07742136716842651,1.243893027305603,-1.3263509273529053,1.176671028137207,0.6548401117324829,16:32:3,10566921
2022-04-26 16:32:05.587344,0.003844238817691803,-0.06887644529342651,1.243893027305603,-1.3721524477005005,1.4514802694320679,0.47163403034210205,16:32:3,10566931
2022-04-26 16:32:05.587344,0.005064941942691803,-0.07009714841842651,1.252682089805603,-1.3874197006225586,1.268274188041687,0.7617102861404419,16:32:3,10566940
2022-04-26 16:32:05.587344,-0.000550292432308197,-0.07327097654342651,1.243893027305603,-1.4332211017608643,1.2835413217544556,0.9601836204528809,16:32:3,10566950
2022-04-26 16:32:05.587344,0.001646973192691803,-0.07595652341842651,1.249264121055603,-1.4179539680480957,1.3293428421020508,0.7769775390625,16:32:3,10566959
2022-04-26 16:32:05.587344,0.001158691942691803,-0.07595652341842651,1.262203574180603,-1.4637556076049805,1.268274188041687,0.8075118064880371,16:32:3,10566969
2022-04-26 16:32:05.587344,-0.000794433057308197,-0.07278269529342651,1.251461386680603,-1.4026868343353271,1.1614038944244385,0.6243057250976562,16:32:3,10566978
2022-04-26 16:32:05.587344,-0.009583495557308197,-0.06545847654342651,1.243648886680603,-1.2194807529449463,1.253006935119629,0.6853744983673096,16:32:3,10566987
2022-04-26 16:32:05.587344,-0.002503417432308197,-0.07424753904342651,1.254879355430603,-1.5248241424560547,1.268274188041687,0.4410996437072754,16:32:3,10566997
2022-04-26 16:32:05.588485,0.000914551317691803,-0.07229441404342651,1.250240683555603,-1.4332211017608643,1.3598772287368774,0.7006416320800781,16:32:3,10567006
2022-04-26 16:32:05.588485,0.002623535692691803,-0.07644480466842651,1.243404746055603,-1.3416181802749634,1.1156023740768433,0.7464431524276733,16:32:3,10567016
2022-04-26 16:32:05.588485,0.003600098192691803,-0.07253855466842651,1.245113730430603,-1.28054940700531,1.1919382810592651,0.8991149663925171,16:32:3,10567025
2022-04-26 16:32:05.588485,-0.009827636182308197,-0.07082957029342651,1.247555136680603,-1.3416181802749634,1.1919382810592651,0.6701072454452515,16:32:3,10567034
2022-04-26 16:32:05.588485,-0.005433104932308197,-0.06887644529342651,1.243648886680603,-1.4179539680480957,1.1919382810592651,0.7006416320800781,16:32:3,10567044
2022-04-26 16:32:05.588485,0.000914551317691803,-0.07229441404342651,1.259762167930603,-1.2500150203704834,1.3446099758148193,0.8075118064880371,16:32:3,10567053
2022-04-26 16:32:05.588485,-0.006165526807308197,-0.07546824216842651,1.243893027305603,-1.356885313987732,1.14613676071167,0.6395729780197144,16:32:3,10567063
2022-04-26 16:32:05.588485,0.006041504442691803,-0.07278269529342651,1.245357871055603,-1.3721524477005005,1.1614038944244385,0.5937714576721191,16:32:3,10567072
2022-04-26 16:32:05.588485,0.005064941942691803,-0.07546824216842651,1.257320761680603,-1.479022741317749,1.1614038944244385,0.8227790594100952,16:32:3,10567081
2022-04-26 16:32:05.589600,0.006041504442691803,-0.07229441404342651,1.246822714805603,-1.2347478866577148,1.2072054147720337,0.7464431524276733,16:32:3,10567091
2022-04-26 16:32:05.589626,0.000670410692691803,-0.07327097654342651,1.251461386680603,-1.3110837936401367,1.1156023740768433,0.7617102861404419,16:32:3,10567100
2022-04-26 16:32:05.589626,-0.000550292432308197,-0.07351511716842651,1.247066855430603,-1.356885313987732,1.2377398014068604,0.7922446727752686,16:32:3,10567110
2022-04-26 16:32:05.589626,-0.000550292432308197,-0.07156199216842651,1.253170371055603,-1.4026868343353271,1.268274188041687,0.5632370710372925,16:32:3,10567119
2022-04-26 16:32:05.589626,-0.003724120557308197,-0.06936472654342651,1.246090292930603,-1.4026868343353271,1.4514802694320679,0.6701072454452515,16:32:3,10567128
2022-04-26 16:32:05.589626,-0.001038573682308197,-0.06374949216842651,1.256100058555603,-1.448488473892212,1.2224726676940918,0.578504204750061,16:32:3,10567138
2022-04-26 16:32:05.589626,0.000670410692691803,-0.07473582029342651,1.238033652305603,-1.3874197006225586,1.176671028137207,0.5937714576721191,16:32:3,10567147
2022-04-26 16:32:05.589626,-0.002503417432308197,-0.07546824216842651,1.246334433555603,-1.3721524477005005,1.2072054147720337,0.8075118064880371,16:32:3,10567157
2022-04-26 16:32:05.589626,-6.201118230819702e-05,-0.07302683591842651,1.250240683555603,-1.3874197006225586,1.1919382810592651,0.7464431524276733,16:32:3,10567166
2022-04-26 16:32:05.590658,0.006285645067691803,-0.07253855466842651,1.255367636680603,-1.3721524477005005,1.2377398014068604,0.8685805797576904,16:32:3,10567175
2022-04-26 16:32:05.590772,-0.001526854932308197,-0.07693308591842651,1.249019980430603,-1.5248241424560547,1.2377398014068604,0.8685805797576904,16:32:3,10567185
2022-04-26 16:32:05.590772,-0.007874511182308197,-0.06789988279342651,1.250728964805603,-1.2652822732925415,1.268274188041687,0.8227790594100952,16:32:3,10567194
2022-04-26 16:32:05.590772,-0.003724120557308197,-0.06912058591842651,1.241939902305603,-1.3263509273529053,1.1156023740768433,0.7311760187149048,16:32:3,10567204
2022-04-26 16:32:05.590772,-0.003479979932308197,-0.07058542966842651,1.254146933555603,-1.28054940700531,1.176671028137207,0.7006416320800781,16:32:3,10567213
2022-04-26 16:32:05.590772,-0.000550292432308197,-0.07156199216842651,1.249264121055603,-1.356885313987732,1.3598772287368774,0.6548401117324829,16:32:3,10567222
2022-04-26 16:32:05.590772,0.003111816942691803,-0.07961863279342651,1.249264121055603,-1.356885313987732,1.1308695077896118,0.7159087657928467,16:32:3,10567232
2022-04-26 16:32:05.590772,-0.000794433057308197,-0.07229441404342651,1.247555136680603,-1.4179539680480957,1.1919382810592651,0.7922446727752686,16:32:3,10567241
2022-04-26 16:32:05.590772,-0.008118651807308197,-0.08083933591842651,1.252437949180603,-1.3721524477005005,1.1308695077896118,0.7922446727752686,16:32:3,10567251
2022-04-26 16:32:05.591803,-0.003235839307308197,-0.07571238279342651,1.242916464805603,-1.448488473892212,1.2224726676940918,0.8533133268356323,16:32:3,10567260
2022-04-26 16:32:05.591914,0.002623535692691803,-0.07546824216842651,1.248531699180603,-1.2652822732925415,1.2072054147720337,0.8075118064880371,16:32:3,10567269
2022-04-26 16:32:05.591914,-0.000306151807308197,-0.07278269529342651,1.254635214805603,-1.4637556076049805,1.2072054147720337,0.47163403034210205,16:32:3,10567279
2022-04-26 16:32:05.591914,-0.003968261182308197,-0.07302683591842651,1.250240683555603,-1.2500150203704834,1.2377398014068604,0.7006416320800781,16:32:3,10567288
2022-04-26 16:32:05.591914,0.004332520067691803,-0.06936472654342651,1.254146933555603,-1.3263509273529053,1.2988084554672241,0.45636677742004395,16:32:3,10567298
2022-04-26 16:32:05.591914,-0.005433104932308197,-0.06960886716842651,1.251461386680603,-1.4179539680480957,1.4209458827972412,0.6395729780197144,16:32:3,10567307
2022-04-26 16:32:05.591914,0.003844238817691803,-0.07082957029342651,1.252926230430603,-1.3416181802749634,1.1156023740768433,0.7006416320800781,16:32:4,10567317
2022-04-26 16:32:05.615166,0.002135254442691803,-0.07473582029342651,1.245113730430603,-1.4026868343353271,1.176671028137207,0.8685805797576904,16:32:4,10567326
2022-04-26 16:32:05.615166,0.002623535692691803,-0.06863230466842651,1.249996542930603,-1.356885313987732,1.14613676071167,0.7922446727752686,16:32:4,10567335
2022-04-26 16:32:05.615166,-0.003235839307308197,-0.07229441404342651,1.253170371055603,-1.356885313987732,1.176671028137207,0.6243057250976562,16:32:4,10567345
2022-04-26 16:32:05.615166,-0.002259276807308197,-0.06301707029342651,1.251217246055603,-1.4637556076049805,1.3140757083892822,0.6243057250976562,16:32:4,10567354
2022-04-26 16:32:05.616166,-0.004944823682308197,-0.07302683591842651,1.246578574180603,-1.3874197006225586,1.3140757083892822,0.7006416320800781,16:32:4,10567364
2022-04-26 16:32:05.616338,-0.002259276807308197,-0.07351511716842651,1.250973105430603,-1.3263509273529053,1.176671028137207,0.7311760187149048,16:32:4,10567373
2022-04-26 16:32:05.635957,-0.000306151807308197,-0.06887644529342651,1.264156699180603,-1.356885313987732,1.176671028137207,0.7006416320800781,16:32:4,10567382
2022-04-26 16:32:05.635957,-0.002991698682308197,-0.07327097654342651,1.249996542930603,-1.5248241424560547,1.253006935119629,0.8075118064880371,16:32:4,10567392
2022-04-26 16:32:05.637028,-0.004700683057308197,-0.07156199216842651,1.249508261680603,-1.3721524477005005,1.3140757083892822,0.883847713470459,16:32:4,10567401
2022-04-26 16:32:05.637061,-0.002259276807308197,-0.07131785154342651,1.245357871055603,-1.448488473892212,1.1156023740768433,0.883847713470459,16:32:4,10567411
2022-04-26 16:32:05.637061,-0.007386229932308197,-0.07131785154342651,1.243404746055603,-1.3721524477005005,1.1003352403640747,0.5632370710372925,16:32:4,10567420
2022-04-26 16:32:05.637061,-0.003724120557308197,-0.07009714841842651,1.253658652305603,-1.2958166599273682,1.2377398014068604,0.6090385913848877,16:32:4,10567429
2022-04-26 16:32:05.660313,0.004820801317691803,-0.07888621091842651,1.251217246055603,-1.4026868343353271,1.14613676071167,0.6701072454452515,16:32:4,10567439
2022-04-26 16:32:05.660313,0.001646973192691803,-0.07424753904342651,1.249752402305603,-1.4026868343353271,1.2224726676940918,0.6395729780197144,16:32:4,10567448
2022-04-26 16:32:05.660313,0.005797363817691803,-0.06912058591842651,1.246090292930603,-1.448488473892212,1.3598772287368774,0.6701072454452515,16:32:4,10567458
2022-04-26 16:32:05.660313,-0.000794433057308197,-0.07351511716842651,1.248287558555603,-1.2652822732925415,1.268274188041687,0.6853744983673096,16:32:4,10567467
2022-04-26 16:32:05.661487,0.001402832567691803,-0.07449167966842651,1.252193808555603,-1.4179539680480957,1.2988084554672241,0.883847713470459,16:32:4,10567476
2022-04-26 16:32:05.661487,-0.000306151807308197,-0.07107371091842651,1.245602011680603,-1.2347478866577148,1.253006935119629,0.7617102861404419,16:32:4,10567486
2022-04-26 16:32:05.682294,0.00018212944269180298,-0.06448191404342651,1.249752402305603,-1.4179539680480957,1.069800853729248,0.6243057250976562,16:32:4,10567495
2022-04-26 16:32:05.682294,-0.007630370557308197,-0.07937449216842651,1.246090292930603,-1.2500150203704834,1.1919382810592651,0.7311760187149048,16:32:4,10567505
2022-04-26 16:32:05.683334,0.001891113817691803,-0.07156199216842651,1.244137167930603,-1.2194807529449463,1.2377398014068604,0.6548401117324829,16:32:4,10567514
2022-04-26 16:32:05.683462,0.003355957567691803,-0.07473582029342651,1.250973105430603,-1.1889463663101196,1.1919382810592651,0.6395729780197144,16:32:4,10567523
2022-04-26 16:32:05.683462,-6.201118230819702e-05,-0.07351511716842651,1.244869589805603,-1.4942898750305176,1.2072054147720337,0.7769775390625,16:32:4,10567533
2022-04-26 16:32:05.683462,-0.003479979932308197,-0.06838816404342651,1.254391074180603,-1.3416181802749634,1.1919382810592651,0.8380461931228638,16:32:4,10567542
2022-04-26 16:32:05.727752,-0.000550292432308197,-0.07522410154342651,1.246090292930603,-1.3874197006225586,1.1614038944244385,0.7159087657928467,16:32:4,10567552
2022-04-26 16:32:05.727752,-0.000306151807308197,-0.07229441404342651,1.247799277305603,-1.3416181802749634,1.1614038944244385,0.578504204750061,16:32:4,10567561
2022-04-26 16:32:05.727752,-0.005433104932308197,-0.06838816404342651,1.242184042930603,-1.5095570087432861,1.1003352403640747,0.6701072454452515,16:32:4,10567570
2022-04-26 16:32:05.727752,-0.002747558057308197,-0.06814402341842651,1.256832480430603,-1.3110837936401367,1.268274188041687,0.5937714576721191,16:32:4,10567580
2022-04-26 16:32:05.727752,0.000426270067691803,-0.06936472654342651,1.251461386680603,-1.3874197006225586,1.3598772287368774,0.6853744983673096,16:32:4,10567589
2022-04-26 16:32:05.727752,0.005797363817691803,-0.07180613279342651,1.247555136680603,-1.28054940700531,1.1003352403640747,0.5937714576721191,16:32:4,10567599
2022-04-26 16:32:05.730275,0.000914551317691803,-0.06887644529342651,1.251705527305603,-1.5095570087432861,1.2835413217544556,0.7922446727752686,16:32:4,10567608
2022-04-26 16:32:05.730275,0.000670410692691803,-0.07986277341842651,1.257076621055603,-1.479022741317749,1.3598772287368774,0.8380461931228638,16:32:4,10567618
2022-04-26 16:32:05.730275,-0.001282714307308197,-0.07205027341842651,1.248531699180603,-1.4332211017608643,1.1156023740768433,0.7922446727752686,16:32:4,10567627
2022-04-26 16:32:05.730275,-0.002503417432308197,-0.07229441404342651,1.248775839805603,-1.4637556076049805,1.268274188041687,0.7922446727752686,16:32:4,10567636
2022-04-26 16:32:05.730275,-0.001770995557308197,-0.07278269529342651,1.252682089805603,-1.2652822732925415,1.1919382810592651,0.7769775390625,16:32:4,10567646
2022-04-26 16:32:05.730275,0.003111816942691803,-0.06936472654342651,1.242672324180603,-1.28054940700531,1.268274188041687,0.7006416320800781,16:32:4,10567655
2022-04-26 16:32:05.752552,-0.008362792432308197,-0.07693308591842651,1.249508261680603,-1.4179539680480957,1.1308695077896118,0.6548401117324829,16:32:4,10567665
2022-04-26 16:32:05.752552,0.002379395067691803,-0.07449167966842651,1.251217246055603,-1.28054940700531,1.1614038944244385,0.7464431524276733,16:32:4,10567674
2022-04-26 16:32:05.753592,-0.001282714307308197,-0.07571238279342651,1.252437949180603,-1.3263509273529053,1.1919382810592651,0.7464431524276733,16:32:4,10567683
2022-04-26 16:32:05.753887,-0.001038573682308197,-0.07400339841842651,1.257076621055603,-1.4026868343353271,1.482014536857605,0.7159087657928467,16:32:4,10567693
2022-04-26 16:32:05.753887,0.001646973192691803,-0.06985300779342651,1.251461386680603,-1.4179539680480957,1.3446099758148193,0.7464431524276733,16:32:4,10567702
2022-04-26 16:32:05.753887,-0.003479979932308197,-0.07229441404342651,1.252682089805603,-1.4179539680480957,1.3446099758148193,0.7006416320800781,16:32:4,10567712
2022-04-26 16:32:05.786431,-0.003479979932308197,-0.06814402341842651,1.250973105430603,-1.4026868343353271,1.253006935119629,0.6853744983673096,16:32:4,10567721
2022-04-26 16:32:05.786431,0.001891113817691803,-0.06887644529342651,1.242916464805603,-1.3721524477005005,1.268274188041687,0.7159087657928467,16:32:4,10567730
2022-04-26 16:32:05.786431,-0.001526854932308197,-0.06912058591842651,1.249752402305603,-1.3110837936401367,1.1614038944244385,0.4410996437072754,16:32:4,10567740
2022-04-26 16:32:05.786431,0.005553223192691803,-0.07546824216842651,1.251705527305603,-1.4179539680480957,1.1919382810592651,0.883847713470459,16:32:4,10567749
2022-04-26 16:32:05.787499,-0.001526854932308197,-0.07424753904342651,1.243160605430603,-1.3263509273529053,1.3140757083892822,0.8075118064880371,16:32:4,10567759
2022-04-26 16:32:05.787499,0.003600098192691803,-0.07620066404342651,1.248531699180603,-1.4942898750305176,1.253006935119629,0.6243057250976562,16:32:4,10567768
2022-04-26 16:32:05.787499,0.000670410692691803,-0.07131785154342651,1.248775839805603,-1.4332211017608643,1.2072054147720337,0.8533133268356323,16:32:4,10567777
2022-04-26 16:32:05.799971,-0.001770995557308197,-0.07034128904342651,1.247799277305603,-1.3110837936401367,1.3446099758148193,0.7617102861404419,16:32:4,10567787
2022-04-26 16:32:05.799971,-0.002503417432308197,-0.07156199216842651,1.245357871055603,-1.2500150203704834,1.268274188041687,0.6243057250976562,16:32:4,10567796
2022-04-26 16:32:05.801072,0.000426270067691803,-0.06960886716842651,1.246334433555603,-1.448488473892212,1.1156023740768433,0.5174355506896973,16:32:4,10567806
2022-04-26 16:32:05.801072,0.00018212944269180298,-0.06741160154342651,1.255611777305603,-1.2652822732925415,1.1919382810592651,0.6243057250976562,16:32:4,10567815
2022-04-26 16:32:05.801072,0.003600098192691803,-0.06887644529342651,1.243893027305603,-1.3874197006225586,1.3904114961624146,0.8685805797576904,16:32:4,10567824
2022-04-26 16:32:05.801072,0.00018212944269180298,-0.07546824216842651,1.242184042930603,-1.28054940700531,1.4362130165100098,0.7769775390625,16:32:4,10567834
2022-04-26 16:32:05.824037,0.001402832567691803,-0.07620066404342651,1.245602011680603,-1.4179539680480957,1.1919382810592651,0.8227790594100952,16:32:4,10567843
2022-04-26 16:32:05.824037,0.000426270067691803,-0.07424753904342651,1.252437949180603,-1.356885313987732,1.176671028137207,0.8227790594100952,16:32:4,10567853
2022-04-26 16:32:05.824037,-0.003479979932308197,-0.06960886716842651,1.252437949180603,-1.3416181802749634,1.3293428421020508,0.5174355506896973,16:32:4,10567862
2022-04-26 16:32:05.824037,-0.003968261182308197,-0.07205027341842651,1.242184042930603,-1.4179539680480957,1.253006935119629,0.578504204750061,16:32:4,10567871
2022-04-26 16:32:05.824037,-0.001038573682308197,-0.07229441404342651,1.250973105430603,-1.3416181802749634,1.2835413217544556,0.7464431524276733,16:32:4,10567881
2022-04-26 16:32:05.824037,-0.003968261182308197,-0.07253855466842651,1.250484824180603,-1.3263509273529053,1.268274188041687,0.6701072454452515,16:32:4,10567890
2022-04-26 16:32:05.849038,0.001402832567691803,-0.06545847654342651,1.252193808555603,-1.4026868343353271,1.14613676071167,0.6243057250976562,16:32:4,10567900
2022-04-26 16:32:05.849038,0.006041504442691803,-0.07278269529342651,1.253658652305603,-1.3874197006225586,1.2377398014068604,0.7311760187149048,16:32:4,10567909
2022-04-26 16:32:05.849038,0.001158691942691803,-0.07522410154342651,1.235592246055603,-1.2958166599273682,1.3446099758148193,0.8075118064880371,16:32:4,10567919
2022-04-26 16:32:05.849038,-0.009339354932308197,-0.07082957029342651,1.250484824180603,-1.356885313987732,1.2224726676940918,0.7464431524276733,16:32:4,10567928
2022-04-26 16:32:05.849038,0.00018212944269180298,-0.07082957029342651,1.249019980430603,-1.3874197006225586,1.14613676071167,0.7159087657928467,16:32:4,10567937
2022-04-26 16:32:05.849038,0.000426270067691803,-0.06838816404342651,1.252682089805603,-1.2958166599273682,1.253006935119629,0.578504204750061,16:32:4,10567947
2022-04-26 16:32:05.871475,0.000426270067691803,-0.07205027341842651,1.241451621055603,-1.3721524477005005,1.253006935119629,0.5327026844024658,16:32:4,10567956
2022-04-26 16:32:05.871475,0.004332520067691803,-0.07156199216842651,1.242428183555603,-1.4179539680480957,1.253006935119629,0.8533133268356323,16:32:4,10567966
2022-04-26 16:32:05.871475,-0.003968261182308197,-0.07253855466842651,1.252193808555603,-1.3874197006225586,1.253006935119629,0.7464431524276733,16:32:4,10567975
2022-04-26 16:32:05.871475,0.002379395067691803,-0.07327097654342651,1.247799277305603,-1.3721524477005005,1.268274188041687,0.8380461931228638,16:32:4,10567984
2022-04-26 16:32:05.871475,-0.000550292432308197,-0.07571238279342651,1.235348105430603,-1.3874197006225586,1.253006935119629,0.7922446727752686,16:32:4,10567994
2022-04-26 16:32:05.871475,0.001646973192691803,-0.07327097654342651,1.251949667930603,-1.3263509273529053,1.1308695077896118,0.6395729780197144,16:32:4,10568003
2022-04-26 16:32:05.897323,-0.002015136182308197,-0.07180613279342651,1.245602011680603,-1.3721524477005005,1.069800853729248,0.6395729780197144,16:32:4,10568013
2022-04-26 16:32:05.898357,-0.000794433057308197,-0.07131785154342651,1.252437949180603,-1.3416181802749634,1.268274188041687,0.6090385913848877,16:32:4,10568022
2022-04-26 16:32:05.898499,-0.002259276807308197,-0.07253855466842651,1.254146933555603,-1.356885313987732,1.1919382810592651,0.5174355506896973,16:32:4,10568031
2022-04-26 16:32:05.898499,0.002379395067691803,-0.07937449216842651,1.254146933555603,-1.3416181802749634,1.1308695077896118,0.5632370710372925,16:32:4,10568041
2022-04-26 16:32:05.898499,0.002623535692691803,-0.07351511716842651,1.251461386680603,-1.448488473892212,1.1003352403640747,0.7159087657928467,16:32:4,10568050
2022-04-26 16:32:05.898499,-0.003724120557308197,-0.07156199216842651,1.252682089805603,-1.3110837936401367,1.268274188041687,0.7617102861404419,16:32:4,10568060
2022-04-26 16:32:05.917521,0.003111816942691803,-0.07082957029342651,1.248287558555603,-1.5400915145874023,1.2988084554672241,0.8227790594100952,16:32:4,10568069
2022-04-26 16:32:05.917521,-0.000794433057308197,-0.06741160154342651,1.248775839805603,-1.3263509273529053,1.4209458827972412,0.6548401117324829,16:32:4,10568078
2022-04-26 16:32:05.917521,0.000670410692691803,-0.07668894529342651,1.246090292930603,-1.448488473892212,1.1003352403640747,0.578504204750061,16:32:4,10568088
2022-04-26 16:32:05.917521,0.007018066942691803,-0.07034128904342651,1.244869589805603,-1.2347478866577148,1.2224726676940918,0.5479698181152344,16:32:4,10568097
2022-04-26 16:32:05.918555,0.002867676317691803,-0.07034128904342651,1.245602011680603,-1.3263509273529053,1.2072054147720337,0.7922446727752686,16:32:4,10568107
2022-04-26 16:32:05.918588,0.001402832567691803,-0.07497996091842651,1.251217246055603,-1.2652822732925415,1.268274188041687,0.8991149663925171,16:32:4,10568116
2022-04-26 16:32:05.941432,0.000914551317691803,-0.07742136716842651,1.249508261680603,-1.3416181802749634,1.2377398014068604,0.8533133268356323,16:32:4,10568125
2022-04-26 16:32:05.941432,0.001646973192691803,-0.07253855466842651,1.244869589805603,-1.3874197006225586,1.2835413217544556,0.7006416320800781,16:32:4,10568135
2022-04-26 16:32:05.941432,-0.005677245557308197,-0.07009714841842651,1.243893027305603,-1.3110837936401367,1.1156023740768433,0.6243057250976562,16:32:4,10568144
2022-04-26 16:32:05.941432,-0.001282714307308197,-0.07668894529342651,1.250484824180603,-1.3721524477005005,1.0392664670944214,0.6090385913848877,16:32:4,10568154
2022-04-26 16:32:05.941432,-0.005433104932308197,-0.07205027341842651,1.245846152305603,-1.3416181802749634,1.176671028137207,0.5479698181152344,16:32:4,10568163
2022-04-26 16:32:05.942496,0.000914551317691803,-0.07620066404342651,1.244137167930603,-1.3416181802749634,1.0087320804595947,0.6701072454452515,16:32:4,10568172
2022-04-26 16:32:05.965307,-0.000794433057308197,-0.07546824216842651,1.242672324180603,-1.4332211017608643,1.1156023740768433,0.578504204750061,16:32:4,10568182
2022-04-26 16:32:05.965307,-0.002747558057308197,-0.07742136716842651,1.249996542930603,-1.4026868343353271,1.2072054147720337,0.7617102861404419,16:32:4,10568191
2022-04-26 16:32:05.965307,0.001402832567691803,-0.07546824216842651,1.247555136680603,-1.3263509273529053,1.3293428421020508,0.8227790594100952,16:32:4,10568201
2022-04-26 16:32:05.965307,0.007750488817691803,-0.06985300779342651,1.250728964805603,-1.4942898750305176,1.268274188041687,0.9296492338180542,16:32:4,10568210
2022-04-26 16:32:05.965307,-0.000550292432308197,-0.07668894529342651,1.249019980430603,-1.356885313987732,1.375144362449646,0.7769775390625,16:32:4,10568219
2022-04-26 16:32:05.965307,-0.006897948682308197,-0.06960886716842651,1.252193808555603,-1.5095570087432861,1.1614038944244385,0.7159087657928467,16:32:4,10568229
2022-04-26 16:32:05.991644,0.000914551317691803,-0.07009714841842651,1.253170371055603,-1.2347478866577148,1.1614038944244385,0.5632370710372925,16:32:4,10568238
2022-04-26 16:32:05.991644,-0.001282714307308197,-0.07278269529342651,1.253170371055603,-1.3416181802749634,1.176671028137207,0.6701072454452515,16:32:4,10568248
2022-04-26 16:32:05.991644,0.004820801317691803,-0.07937449216842651,1.247310996055603,-1.28054940700531,1.14613676071167,0.8075118064880371,16:32:4,10568257
2022-04-26 16:32:05.991644,0.000670410692691803,-0.07668894529342651,1.249508261680603,-1.4332211017608643,0.9629306197166443,0.6853744983673096,16:32:4,10568267
2022-04-26 16:32:05.991644,0.002867676317691803,-0.07180613279342651,1.248531699180603,-1.4179539680480957,1.253006935119629,0.883847713470459,16:32:4,10568276
2022-04-26 16:32:05.991644,-0.000306151807308197,-0.07497996091842651,1.251461386680603,-1.4179539680480957,1.2377398014068604,0.7311760187149048,16:32:4,10568285
2022-04-26 16:32:06.012915,-0.004944823682308197,-0.07205027341842651,1.241451621055603,-1.3110837936401367,1.176671028137207,0.6243057250976562,16:32:4,10568295
2022-04-26 16:32:06.013179,0.00018212944269180298,-0.07449167966842651,1.250484824180603,-1.28054940700531,1.2988084554672241,0.5327026844024658,16:32:4,10568304
2022-04-26 16:32:06.013179,-0.002747558057308197,-0.07424753904342651,1.257564902305603,-1.2958166599273682,1.069800853729248,0.5174355506896973,16:32:5,10568314
2022-04-26 16:32:06.013179,-0.005677245557308197,-0.07766550779342651,1.252926230430603,-1.4026868343353271,1.069800853729248,0.6090385913848877,16:32:5,10568323
2022-04-26 16:32:06.013179,0.002867676317691803,-0.06960886716842651,1.251705527305603,-1.2652822732925415,1.268274188041687,0.6090385913848877,16:32:5,10568332
2022-04-26 16:32:06.013179,-0.004700683057308197,-0.07400339841842651,1.239986777305603,-1.3721524477005005,1.268274188041687,0.7617102861404419,16:32:5,10568342
2022-04-26 16:32:06.040671,0.006285645067691803,-0.07522410154342651,1.240963339805603,-1.3721524477005005,1.3446099758148193,0.8075118064880371,16:32:5,10568351
2022-04-26 16:32:06.040755,-0.000794433057308197,-0.07327097654342651,1.244381308555603,-1.448488473892212,1.3446099758148193,0.8380461931228638,16:32:5,10568361
2022-04-26 16:32:06.040755,-0.004700683057308197,-0.07351511716842651,1.245113730430603,-1.3721524477005005,1.1919382810592651,0.6395729780197144,16:32:5,10568370
2022-04-26 16:32:06.040755,0.000426270067691803,-0.07546824216842651,1.241939902305603,-1.4026868343353271,1.2377398014068604,0.7006416320800781,16:32:5,10568379
2022-04-26 16:32:06.040755,0.006529785692691803,-0.07302683591842651,1.244625449180603,-1.2042135000228882,1.1308695077896118,0.578504204750061,16:32:5,10568389
2022-04-26 16:32:06.040755,-6.201118230819702e-05,-0.07424753904342651,1.246334433555603,-1.4637556076049805,1.1614038944244385,0.7617102861404419,16:32:5,10568398
2022-04-26 16:32:06.058225,-0.002259276807308197,-0.07375925779342651,1.250728964805603,-1.4637556076049805,1.0850679874420166,0.578504204750061,16:32:5,10568408
2022-04-26 16:32:06.059303,0.003600098192691803,-0.06716746091842651,1.242916464805603,-1.3263509273529053,1.14613676071167,0.7922446727752686,16:32:5,10568417
2022-04-26 16:32:06.059345,-0.000306151807308197,-0.07180613279342651,1.243893027305603,-1.3110837936401367,1.2224726676940918,0.7617102861404419,16:32:5,10568426
2022-04-26 16:32:06.059345,0.002867676317691803,-0.07229441404342651,1.249752402305603,-1.2194807529449463,1.176671028137207,0.7159087657928467,16:32:5,10568436
2022-04-26 16:32:06.059345,0.001891113817691803,-0.06570261716842651,1.245357871055603,-1.4332211017608643,1.4056787490844727,0.5479698181152344,16:32:5,10568445
2022-04-26 16:32:06.059345,-0.007874511182308197,-0.07253855466842651,1.243160605430603,-1.356885313987732,1.253006935119629,0.5021682977676392,16:32:5,10568455
2022-04-26 16:32:06.082319,0.000914551317691803,-0.07229441404342651,1.245357871055603,-1.4179539680480957,1.176671028137207,0.6090385913848877,16:32:5,10568464
2022-04-26 16:32:06.082319,0.003844238817691803,-0.07693308591842651,1.249508261680603,-1.4026868343353271,1.2224726676940918,0.7311760187149048,16:32:5,10568473
2022-04-26 16:32:06.082319,0.004576660692691803,-0.07253855466842651,1.245602011680603,-1.4026868343353271,1.1308695077896118,0.9296492338180542,16:32:5,10568483
2022-04-26 16:32:06.083319,-6.201118230819702e-05,-0.07473582029342651,1.245113730430603,-1.3874197006225586,1.3446099758148193,0.7769775390625,16:32:5,10568492
2022-04-26 16:32:06.083319,-0.004212401807308197,-0.07278269529342651,1.253658652305603,-1.448488473892212,1.2377398014068604,0.7617102861404419,16:32:5,10568502
2022-04-26 16:32:06.083319,0.006041504442691803,-0.07327097654342651,1.253170371055603,-1.3874197006225586,1.3293428421020508,0.883847713470459,16:32:5,10568511
2022-04-26 16:32:06.128871,-0.007630370557308197,-0.07473582029342651,1.244381308555603,-1.2500150203704834,1.1156023740768433,0.6395729780197144,16:32:5,10568520
2022-04-26 16:32:06.128871,-0.001282714307308197,-0.08010691404342651,1.244625449180603,-1.3874197006225586,1.1919382810592651,0.6395729780197144,16:32:5,10568530
2022-04-26 16:32:06.128871,0.000914551317691803,-0.07180613279342651,1.237789511680603,-1.3263509273529053,1.0545337200164795,0.8075118064880371,16:32:5,10568539
2022-04-26 16:32:06.128871,0.002135254442691803,-0.07522410154342651,1.248043417930603,-1.4942898750305176,1.1919382810592651,0.6243057250976562,16:32:5,10568549
2022-04-26 16:32:06.128871,0.001158691942691803,-0.07790964841842651,1.247799277305603,-1.4026868343353271,1.176671028137207,0.7617102861404419,16:32:5,10568558
2022-04-26 16:32:06.129973,-0.002015136182308197,-0.07595652341842651,1.249508261680603,-1.2347478866577148,1.2224726676940918,0.7769775390625,16:32:5,10568568
2022-04-26 16:32:06.176683,0.00018212944269180298,-0.07766550779342651,1.250973105430603,-1.3721524477005005,1.2072054147720337,0.7464431524276733,16:32:5,10568577
2022-04-26 16:32:06.176683,0.00018212944269180298,-0.07302683591842651,1.249752402305603,-1.356885313987732,1.2988084554672241,0.6853744983673096,16:32:5,10568586
2022-04-26 16:32:06.176683,0.008238770067691803,-0.07668894529342651,1.245846152305603,-1.4179539680480957,1.069800853729248,0.7617102861404419,16:32:5,10568596
2022-04-26 16:32:06.176683,-0.006165526807308197,-0.06716746091842651,1.246822714805603,-1.3263509273529053,1.3140757083892822,0.8380461931228638,16:32:5,10568605
2022-04-26 16:32:06.176683,-0.000794433057308197,-0.06887644529342651,1.253170371055603,-1.4179539680480957,1.2377398014068604,0.6701072454452515,16:32:5,10568615
2022-04-26 16:32:06.176683,-0.001282714307308197,-0.06716746091842651,1.254879355430603,-1.3263509273529053,1.2224726676940918,0.6395729780197144,16:32:5,10568624
2022-04-26 16:32:06.251761,0.006041504442691803,-0.07644480466842651,1.249264121055603,-1.4026868343353271,1.3293428421020508,0.6395729780197144,16:32:5,10568633
2022-04-26 16:32:06.251761,0.005309082567691803,-0.07327097654342651,1.247066855430603,-1.4026868343353271,1.3446099758148193,0.7464431524276733,16:32:5,10568643
2022-04-26 16:32:06.251761,-0.006897948682308197,-0.07351511716842651,1.248775839805603,-1.4026868343353271,1.2835413217544556,0.8075118064880371,16:32:5,10568652
2022-04-26 16:32:06.251761,-6.201118230819702e-05,-0.07400339841842651,1.253902792930603,-1.4026868343353271,1.268274188041687,0.8075118064880371,16:32:5,10568662
2022-04-26 16:32:06.251761,-0.009095214307308197,-0.07302683591842651,1.241451621055603,-1.448488473892212,1.1003352403640747,0.6243057250976562,16:32:5,10568671
2022-04-26 16:32:06.251761,-0.007142089307308197,-0.06936472654342651,1.239010214805603,-1.3110837936401367,1.268274188041687,0.5937714576721191,16:32:5,10568680
2022-04-26 16:32:06.293226,0.000426270067691803,-0.06765574216842651,1.251461386680603,-1.4179539680480957,1.2377398014068604,0.6548401117324829,16:32:5,10568690
2022-04-26 16:32:06.294279,0.001646973192691803,-0.07131785154342651,1.243893027305603,-1.5095570087432861,1.2988084554672241,0.7159087657928467,16:32:5,10568699
2022-04-26 16:32:06.294279,0.006041504442691803,-0.07009714841842651,1.252926230430603,-1.4332211017608643,1.2377398014068604,0.8380461931228638,16:32:5,10568709
2022-04-26 16:32:06.294279,-0.000550292432308197,-0.07180613279342651,1.248043417930603,-1.3874197006225586,1.1614038944244385,0.6701072454452515,16:32:5,10568718
2022-04-26 16:32:06.294279,-0.000306151807308197,-0.07424753904342651,1.252682089805603,-1.5095570087432861,1.1919382810592651,0.7464431524276733,16:32:5,10568727
2022-04-26 16:32:06.294279,-0.002747558057308197,-0.07278269529342651,1.241939902305603,-1.479022741317749,1.2988084554672241,0.6548401117324829,16:32:5,10568737
2022-04-26 16:32:06.341366,-0.003968261182308197,-0.06497019529342651,1.250973105430603,-1.356885313987732,1.1614038944244385,0.6243057250976562,16:32:5,10568746
2022-04-26 16:32:06.341366,-0.000794433057308197,-0.07766550779342651,1.257320761680603,-1.2652822732925415,1.253006935119629,0.6243057250976562,16:32:5,10568756
2022-04-26 16:32:06.342400,-0.001038573682308197,-0.07180613279342651,1.246578574180603,-1.2500150203704834,1.2224726676940918,0.5174355506896973,16:32:5,10568765
2022-04-26 16:32:06.342467,-0.000550292432308197,-0.06423777341842651,1.256344199180603,-1.5400915145874023,1.253006935119629,0.7464431524276733,16:32:5,10568774
2022-04-26 16:32:06.342467,0.000914551317691803,-0.07302683591842651,1.246578574180603,-1.3874197006225586,1.3446099758148193,0.8533133268356323,16:32:5,10568784
2022-04-26 16:32:06.342467,0.000426270067691803,-0.07351511716842651,1.246090292930603,-1.356885313987732,1.3293428421020508,0.8075118064880371,16:32:5,10568793
2022-04-26 16:32:06.411203,-0.005433104932308197,-0.06960886716842651,1.252437949180603,-1.479022741317749,1.253006935119629,0.7464431524276733,16:32:5,10568803
2022-04-26 16:32:06.411203,0.001891113817691803,-0.07107371091842651,1.244381308555603,-1.28054940700531,1.2224726676940918,0.7311760187149048,16:32:5,10568812
2022-04-26 16:32:06.412275,0.000426270067691803,-0.06985300779342651,1.250484824180603,-1.356885313987732,1.3140757083892822,0.6395729780197144,16:32:5,10568821
2022-04-26 16:32:06.412526,-0.005433104932308197,-0.07546824216842651,1.251217246055603,-1.4179539680480957,1.176671028137207,0.578504204750061,16:32:5,10568831
2022-04-26 16:32:06.412526,0.007018066942691803,-0.07424753904342651,1.248531699180603,-1.5095570087432861,1.14613676071167,0.7159087657928467,16:32:5,10568840
2022-04-26 16:32:06.412526,0.005064941942691803,-0.07620066404342651,1.242428183555603,-1.4179539680480957,1.0239993333816528,0.8380461931228638,16:32:5,10568850
2022-04-26 16:32:06.412526,0.001891113817691803,-0.07571238279342651,1.248775839805603,-1.479022741317749,1.1308695077896118,0.7769775390625,16:32:5,10568859
2022-04-26 16:32:06.482913,-0.000794433057308197,-0.07546824216842651,1.251705527305603,-1.3110837936401367,1.14613676071167,0.8227790594100952,16:32:5,10568869
2022-04-26 16:32:06.482913,0.002135254442691803,-0.07497996091842651,1.247555136680603,-1.5400915145874023,1.1156023740768433,0.8075118064880371,16:32:5,10568878
2022-04-26 16:32:06.482913,0.003600098192691803,-0.07058542966842651,1.253170371055603,-1.3110837936401367,1.3598772287368774,0.6853744983673096,16:32:5,10568887
2022-04-26 16:32:06.482913,-0.003479979932308197,-0.06985300779342651,1.257809042930603,-1.479022741317749,1.3140757083892822,0.6243057250976562,16:32:5,10568897
2022-04-26 16:32:06.482913,0.000670410692691803,-0.06765574216842651,1.244381308555603,-1.448488473892212,1.1919382810592651,0.7006416320800781,16:32:5,10568906
2022-04-26 16:32:06.482913,-6.201118230819702e-05,-0.07644480466842651,1.248775839805603,-1.28054940700531,1.3140757083892822,0.6853744983673096,16:32:5,10568916
2022-04-26 16:32:06.528597,0.001891113817691803,-0.07742136716842651,1.244625449180603,-1.3721524477005005,1.2988084554672241,0.883847713470459,16:32:5,10568925
2022-04-26 16:32:06.528597,-0.000794433057308197,-0.06887644529342651,1.258053183555603,-1.2500150203704834,1.1919382810592651,0.8227790594100952,16:32:5,10568934
2022-04-26 16:32:06.528597,-6.201118230819702e-05,-0.06863230466842651,1.252926230430603,-1.356885313987732,1.2377398014068604,0.7769775390625,16:32:5,10568944
2022-04-26 16:32:06.529674,-0.004700683057308197,-0.06936472654342651,1.251217246055603,-1.4637556076049805,1.1614038944244385,0.7769775390625,16:32:5,10568953
2022-04-26 16:32:06.529674,0.000670410692691803,-0.07888621091842651,1.252193808555603,-1.3263509273529053,1.2224726676940918,0.7311760187149048,16:32:5,10568963
2022-04-26 16:32:06.529674,-6.201118230819702e-05,-0.07351511716842651,1.248775839805603,-1.2652822732925415,1.1919382810592651,0.6395729780197144,16:32:5,10568972
2022-04-26 16:32:06.584128,-0.005188964307308197,-0.07595652341842651,1.248531699180603,-1.3263509273529053,1.2224726676940918,0.5327026844024658,16:32:5,10568981
2022-04-26 16:32:06.584128,0.001646973192691803,-0.07034128904342651,1.246090292930603,-1.28054940700531,1.5430833101272583,0.6243057250976562,16:32:5,10568991
2022-04-26 16:32:06.584128,0.003355957567691803,-0.07473582029342651,1.248775839805603,-1.448488473892212,1.1003352403640747,0.5937714576721191,16:32:5,10569000
2022-04-26 16:32:06.584128,0.002135254442691803,-0.07546824216842651,1.248775839805603,-1.4332211017608643,1.176671028137207,0.7922446727752686,16:32:5,10569010
2022-04-26 16:32:06.584128,0.001402832567691803,-0.07180613279342651,1.237789511680603,-1.3721524477005005,1.2072054147720337,0.9601836204528809,16:32:5,10569019
2022-04-26 16:32:06.584128,0.007262207567691803,-0.06960886716842651,1.250728964805603,-1.4942898750305176,1.253006935119629,0.7464431524276733,16:32:5,10569028
2022-04-26 16:32:06.645405,-0.000550292432308197,-0.07058542966842651,1.244625449180603,-1.4179539680480957,1.375144362449646,0.6090385913848877,16:32:5,10569038
2022-04-26 16:32:06.645405,-0.002503417432308197,-0.07229441404342651,1.248531699180603,-1.3874197006225586,1.2224726676940918,0.6243057250976562,16:32:5,10569047
2022-04-26 16:32:06.645405,0.000426270067691803,-0.07424753904342651,1.246090292930603,-1.4179539680480957,1.14613676071167,0.8227790594100952,16:32:5,10569057
2022-04-26 16:32:06.645405,0.001891113817691803,-0.07082957029342651,1.256832480430603,-1.4026868343353271,1.2072054147720337,0.6548401117324829,16:32:5,10569066
2022-04-26 16:32:06.645405,-0.002015136182308197,-0.06985300779342651,1.248043417930603,-1.3263509273529053,1.2072054147720337,0.7769775390625,16:32:5,10569075
2022-04-26 16:32:06.645405,0.002623535692691803,-0.07351511716842651,1.252437949180603,-1.2194807529449463,1.268274188041687,0.8075118064880371,16:32:5,10569085
2022-04-26 16:32:06.692605,-0.000306151807308197,-0.06619089841842651,1.248287558555603,-1.4026868343353271,1.1614038944244385,0.8227790594100952,16:32:5,10569094
2022-04-26 16:32:06.692605,0.004576660692691803,-0.07229441404342651,1.245113730430603,-1.356885313987732,1.0545337200164795,0.6548401117324829,16:32:5,10569104
2022-04-26 16:32:06.692605,-0.001770995557308197,-0.06741160154342651,1.247799277305603,-1.4332211017608643,1.2835413217544556,0.6090385913848877,16:32:5,10569113
2022-04-26 16:32:06.692605,-0.005921386182308197,-0.07180613279342651,1.247310996055603,-1.356885313987732,1.0239993333816528,0.5937714576721191,16:32:5,10569122
2022-04-26 16:32:06.692605,-0.004212401807308197,-0.08328074216842651,1.243404746055603,-1.4026868343353271,1.3446099758148193,0.5937714576721191,16:32:5,10569132
2022-04-26 16:32:06.693715,-0.003479979932308197,-0.07546824216842651,1.246334433555603,-1.2347478866577148,1.2224726676940918,0.8991149663925171,16:32:5,10569141
2022-04-26 16:32:06.763663,-0.000306151807308197,-0.07009714841842651,1.250240683555603,-1.356885313987732,1.3140757083892822,0.883847713470459,16:32:5,10569151
2022-04-26 16:32:06.763663,0.000670410692691803,-0.07278269529342651,1.251949667930603,-1.5248241424560547,1.1308695077896118,0.8227790594100952,16:32:5,10569160
2022-04-26 16:32:06.763663,0.000426270067691803,-0.07595652341842651,1.250484824180603,-1.1431448459625244,1.1614038944244385,0.7769775390625,16:32:5,10569170
2022-04-26 16:32:06.763663,-0.002259276807308197,-0.07327097654342651,1.249752402305603,-1.3416181802749634,1.2377398014068604,0.6243057250976562,16:32:5,10569179
2022-04-26 16:32:06.764663,0.00018212944269180298,-0.07034128904342651,1.256588339805603,-1.3874197006225586,1.2072054147720337,0.5632370710372925,16:32:5,10569188
2022-04-26 16:32:06.764663,-0.002259276807308197,-0.07253855466842651,1.256344199180603,-1.479022741317749,1.14613676071167,0.6395729780197144,16:32:5,10569198
2022-04-26 16:32:06.810958,0.001402832567691803,-0.07546824216842651,1.239742636680603,-1.3110837936401367,1.2835413217544556,0.578504204750061,16:32:5,10569207
2022-04-26 16:32:06.810958,0.003600098192691803,-0.06912058591842651,1.248775839805603,-1.4637556076049805,1.3293428421020508,0.6701072454452515,16:32:5,10569217
2022-04-26 16:32:06.812026,0.005553223192691803,-0.07180613279342651,1.257076621055603,-1.4179539680480957,1.3598772287368774,0.7464431524276733,16:32:5,10569226
2022-04-26 16:32:06.812057,0.003111816942691803,-0.07082957029342651,1.242184042930603,-1.4942898750305176,1.253006935119629,0.8380461931228638,16:32:5,10569235
2022-04-26 16:32:06.812057,-0.000306151807308197,-0.06692332029342651,1.245113730430603,-1.2652822732925415,1.3293428421020508,0.7311760187149048,16:32:5,10569245
2022-04-26 16:32:06.812057,-0.000794433057308197,-0.06912058591842651,1.247555136680603,-1.4942898750305176,1.253006935119629,0.6548401117324829,16:32:5,10569254
2022-04-26 16:32:06.858651,-0.006653808057308197,-0.06863230466842651,1.247555136680603,-1.3416181802749634,1.2377398014068604,0.4869011640548706,16:32:5,10569264
2022-04-26 16:32:06.858651,-0.003968261182308197,-0.07595652341842651,1.249264121055603,-1.3721524477005005,1.268274188041687,0.6243057250976562,16:32:5,10569273
2022-04-26 16:32:06.858651,-0.000794433057308197,-0.07229441404342651,1.239742636680603,-1.4026868343353271,1.1308695077896118,0.8227790594100952,16:32:5,10569282
2022-04-26 16:32:06.858651,0.00018212944269180298,-0.07009714841842651,1.249019980430603,-1.3874197006225586,1.268274188041687,0.7769775390625,16:32:5,10569292
2022-04-26 16:32:06.859650,-0.001038573682308197,-0.07156199216842651,1.239498496055603,-1.448488473892212,1.1614038944244385,0.7769775390625,16:32:5,10569301
2022-04-26 16:32:06.859650,-0.005677245557308197,-0.07766550779342651,1.245357871055603,-1.356885313987732,1.2072054147720337,0.8227790594100952,16:32:6,10569311
2022-04-26 16:32:06.927215,0.002379395067691803,-0.06960886716842651,1.248287558555603,-1.4179539680480957,1.2224726676940918,0.8380461931228638,16:32:6,10569320
2022-04-26 16:32:06.928251,-0.001282714307308197,-0.07449167966842651,1.243160605430603,-1.3416181802749634,1.1156023740768433,0.6395729780197144,16:32:6,10569329
2022-04-26 16:32:06.928403,-0.010804198682308197,-0.07400339841842651,1.249508261680603,-1.356885313987732,1.2224726676940918,0.578504204750061,16:32:6,10569339
2022-04-26 16:32:06.928403,0.001891113817691803,-0.07351511716842651,1.245357871055603,-1.3874197006225586,1.2224726676940918,0.3952980041503906,16:32:6,10569348
2022-04-26 16:32:06.928403,-6.201118230819702e-05,-0.07571238279342651,1.241451621055603,-1.4179539680480957,1.3140757083892822,0.7617102861404419,16:32:6,10569358
2022-04-26 16:32:06.928403,0.003355957567691803,-0.07375925779342651,1.250484824180603,-1.3110837936401367,1.0392664670944214,0.8380461931228638,16:32:6,10569367
2022-04-26 16:32:06.974694,0.002135254442691803,-0.07351511716842651,1.252193808555603,-1.3110837936401367,1.1308695077896118,0.8685805797576904,16:32:6,10569376
2022-04-26 16:32:06.975781,0.1325063407421112,-1.0508100986480713,1.989254355430603,-110.27291870117188,-10.38058090209961,40.82278060913086,16:32:6,10569386
2022-04-26 16:32:06.975781,0.3361196219921112,0.12350636720657349,1.162838339805603,-111.73856353759766,11.497281074523926,166.39529418945312,16:32:6,10569395
2022-04-26 16:32:06.975781,0.1005239263176918,-0.007353007793426514,0.969234824180603,-14.379786491394043,-50.288978576660156,8.39529800415039,16:32:6,10569405
2022-04-26 16:32:06.975781,-0.4400034248828888,-0.12039011716842651,1.191891074180603,10.856854438781738,-12.746993064880371,5.708275318145752,16:32:6,10569414
2022-04-26 16:32:06.975781,0.00018212944269180298,-0.1731244921684265,1.417477011680603,8.230900764465332,-7.907298564910889,-59.36042404174805,16:32:6,10569423
2022-04-26 16:32:07.046759,0.0751333013176918,-0.11770457029342651,1.421627402305603,-6.166045188903809,-10.701191902160645,17.8762149810791,16:32:6,10569433
2022-04-26 16:32:07.046759,0.0458364263176918,-0.040556132793426514,1.459957480430603,3.375939130783081,-26.273710250854492,-12.58180046081543,16:32:6,10569442
2022-04-26 16:32:07.046759,-0.2031870186328888,0.027314960956573486,0.747799277305603,-77.31108093261719,119.97056579589844,144.38003540039062,16:32:6,10569452
2022-04-26 16:32:07.046759,-0.0628061518073082,-0.12112253904342651,1.084713339805603,84.53624725341797,-39.388214111328125,-128.123779296875,16:32:6,10569461
2022-04-26 16:32:07.046759,0.2067250907421112,-0.004179179668426514,1.444576621055603,13.375938415527344,-0.6553899049758911,3.3265957832336426,16:32:6,10569470
2022-04-26 16:32:07.046759,-0.1863413155078888,0.1415727734565735,0.761227011680603,-2.868335723876953,9.237739562988281,-2.93294620513916,16:32:6,10569480
2022-04-26 16:32:07.094194,-0.2608042061328888,-0.032255351543426514,0.810543417930603,0.0476948618888855,-54.39584732055664,2.7922446727752686,16:32:6,10569489
2022-04-26 16:32:07.094194,0.0714711919426918,-0.08474558591842651,1.405025839805603,61.070594787597656,-87.78516387939453,-83.4520263671875,16:32:6,10569499
2022-04-26 16:32:07.094194,-0.2236948311328888,-0.09573191404342651,1.191158652305603,-16.104976654052734,-4.441649436950684,16.822778701782227,16:32:6,10569508
2022-04-26 16:32:07.094194,-0.1321420967578888,-0.044462382793426514,1.124264121055603,-0.6698623895645142,-31.128673553466797,-7.955847263336182,16:32:6,10569518
2022-04-26 16:32:07.094194,-0.027161620557308197,-0.08206003904342651,1.176998496055603,11.330137252807617,-16.487449645996094,-12.917678833007812,16:32:6,10569527
2022-04-26 16:32:07.094194,-0.016419433057308197,-0.06692332029342651,1.212643027305603,-4.593526840209961,-30.01416778564453,0.38003087043762207,16:32:6,10569536
2022-04-26 16:32:07.141658,-0.0588999018073082,-0.06838816404342651,1.215328574180603,-15.036274909973145,-24.991268157958984,9.570870399475098,16:32:6,10569546
2022-04-26 16:32:07.141658,-0.012024901807308197,-0.061063945293426514,1.242672324180603,-13.448488235473633,-13.296611785888672,10.410565376281738,16:32:6,10569555
2022-04-26 16:32:07.141658,-0.0486459955573082,-0.035673320293426514,1.224117636680603,-13.402687072753906,-8.273711204528809,12.349496841430664,16:32:6,10569565
2022-04-26 16:32:07.141658,-0.1238413080573082,-0.046415507793426514,1.160885214805603,44.70418167114258,-14.273711204528809,-48.826072692871094,16:32:6,10569574
2022-04-26 16:32:07.141658,-0.0588999018073082,-0.1347944140434265,1.209957480430603,5.223267555236816,2.779724597930908,-3.299358367919922,16:32:6,10569583
2022-04-26 16:32:07.141658,-0.1519174873828888,-0.09451121091842651,1.177242636680603,14.078228950500488,-0.731725811958313,-8.368061065673828,16:32:6,10569593
2022-04-26 16:32:07.209686,-0.1460581123828888,-0.06716746091842651,1.237789511680603,10.230900764465332,12.352243423461914,-10.00164794921875,16:32:6,10569602
2022-04-26 16:32:07.209686,-0.1196909174323082,-0.07278269529342651,1.247310996055603,8.841588020324707,15.573616981506348,-4.108518600463867,16:32:6,10569612
2022-04-26 16:32:07.210815,-0.1260385811328888,-0.08157175779342651,1.240230917930603,14.261435508728027,26.107969284057617,-11.177221298217773,16:32:6,10569621
2022-04-26 16:32:07.210815,-0.0977182611823082,-0.09084910154342651,1.279781699180603,2.1392979621887207,34.81026077270508,-0.8413431644439697,16:32:6,10569630
2022-04-26 16:32:07.210815,-0.0462045893073082,-0.038603007793426514,1.279537558555603,2.3683056831359863,39.451480865478516,-0.29172468185424805,16:32:6,10569640
2022-04-26 16:32:07.210815,0.013609863817691803,-0.06374949216842651,1.321773886680603,0.7347177267074585,34.79499053955078,-2.93294620513916,16:32:6,10569649
2022-04-26 16:32:07.257445,0.0411977544426918,-0.07717722654342651,1.289303183555603,-5.509556770324707,33.268272399902344,10.929649353027344,16:32:6,10569659
2022-04-26 16:32:07.257445,0.0399770513176918,-0.031034648418426514,1.378902792930603,-4.364519119262695,20.535449981689453,3.92201566696167,16:32:6,10569668
2022-04-26 16:32:07.257445,0.0490102544426918,-0.049589335918426514,1.340572714805603,-5.234747886657715,13.680487632751465,-0.5359995365142822,16:32:6,10569677
2022-04-26 16:32:07.257445,0.0744008794426918,-0.11306589841842651,1.310055136680603,-3.6316945552825928,5.237739562988281,2.6548399925231934,16:32:6,10569687
2022-04-26 16:32:07.258544,0.0702504888176918,-0.11770457029342651,1.281978964805603,-3.479022741317749,-1.3424128293991089,3.983084201812744,16:32:6,10569696
2022-04-26 16:32:07.258544,0.0458364263176918,-0.07986277341842651,1.284664511680603,-4.04390811920166,-10.304244995117188,2.105221748352051,16:32:6,10569706
2022-04-26 16:32:07.328445,0.007018066942691803,-0.10745066404342651,1.245357871055603,-4.91413688659668,-10.533252716064453,4.349496841430664,16:32:6,10569715
2022-04-26 16:32:07.328445,-0.027405761182308197,-0.062040507793426514,1.235592246055603,-5.540091514587402,-10.029436111450195,2.2273592948913574,16:32:6,10569724
2022-04-26 16:32:07.329567,-0.0347299799323082,-0.08523386716842651,1.228756308555603,-0.9446715116500854,-10.762260437011719,3.0823209285736084,16:32:6,10569734
2022-04-26 16:32:07.329567,-0.0469370111823082,-0.06301707029342651,1.236812949180603,0.03242766857147217,-8.746993064880371,-0.29172468185424805,16:32:6,10569743
2022-04-26 16:32:07.329567,-0.0466928705573082,-0.050077617168426514,1.213131308555603,3.9713590145111084,-5.128672122955322,-6.4596638679504395,16:32:6,10569753
2022-04-26 16:32:07.329567,-0.0335092768073082,-0.058622539043426514,1.151119589805603,27.54387855529785,2.9171290397644043,-33.08561706542969,16:32:6,10569762
2022-04-26 16:32:07.376626,-0.0681772455573082,-0.022001445293426514,1.244625449180603,35.452274322509766,2.459113836288452,-34.551265716552734,16:32:6,10569771
2022-04-26 16:32:07.376626,-0.0574350580573082,-0.053983867168426514,1.206051230430603,41.23853302001953,11.207204818725586,-46.41386032104492,16:32:6,10569781
2022-04-26 16:32:07.376626,-0.023499511182308197,-0.028349101543426514,1.197262167930603,58.94845962524414,14.352243423461914,-57.87950897216797,16:32:6,10569790
2022-04-26 16:32:07.376626,0.012633301317691803,-0.08694285154342651,1.146725058555603,78.04769134521484,17.069801330566406,-75.80317687988281,16:32:6,10569800
2022-04-26 16:32:07.376626,-0.004944823682308197,-0.07986277341842651,1.212398886680603,77.07059478759766,13.26827335357666,-64.39859008789062,16:32:6,10569809
2022-04-26 16:32:07.376626,-0.029114745557308197,-0.1470014452934265,1.316402792930603,52.20036697387695,14.153769493103027,-51.31462478637695,16:32:6,10569819
2022-04-26 16:32:07.444612,0.009215332567691803,-0.1284467577934265,1.285641074180603,26.582046508789062,22.947664260864258,-20.90241241455078,16:32:6,10569828
2022-04-26 16:32:07.444612,0.0353383794426918,-0.09158152341842651,1.248043417930603,29.8797550201416,31.970563888549805,-27.818443298339844,16:32:6,10569837
2022-04-26 16:32:07.445703,0.0814809575676918,-0.051542460918426514,1.251461386680603,40.18510055541992,35.90949630737305,-29.390962600708008,16:32:6,10569847
2022-04-26 16:32:07.445703,0.0971059575676918,-0.053983867168426514,1.282711386680603,57.97135925292969,33.405677795410156,-45.009281158447266,16:32:6,10569856
2022-04-26 16:32:07.445703,0.0883168950676918,-0.046415507793426514,1.325924277305603,67.31487274169922,35.29880905151367,-50.0932502746582,16:32:6,10569866
2022-04-26 16:32:07.445703,0.1171254888176918,-0.09402292966842651,1.322506308555603,69.42173767089844,37.63468551635742,-47.665767669677734,16:32:6,10569875
2022-04-26 16:32:07.491594,0.1315297782421112,-0.014433085918426514,1.268062949180603,86.780517578125,41.20720672607422,-50.39859390258789,16:32:6,10569884
2022-04-26 16:32:07.491594,0.1027211919426918,-0.024931132793426514,1.307857871055603,107.45227813720703,42.82552719116211,-67.77263641357422,16:32:6,10569894
2022-04-26 16:32:07.491594,0.0975942388176918,-0.045438945293426514,1.395992636680603,118.81105041503906,47.28354263305664,-72.13905334472656,16:32:6,10569903
2022-04-26 16:32:07.491594,0.2150258719921112,-0.4692670702934265,1.613277792930603,78.94845581054688,35.94002914428711,-69.6352310180664,16:32:6,10569913
2022-04-26 16:32:07.491594,0.1586293876171112,-0.10989207029342651,1.474361777305603,62.30723571777344,47.80262756347656,-46.52073287963867,16:32:6,10569922
2022-04-26 16:32:07.491594,0.1735219657421112,-0.11086863279342651,1.480709433555603,66.88739013671875,40.82552719116211,-59.94057846069336,16:32:6,10569931
2022-04-26 16:32:07.491594,0.2035512626171112,-0.10598582029342651,1.457027792930603,66.20036315917969,42.53544998168945,-61.86424255371094,16:32:6,10569941
2022-04-26 16:32:07.564602,0.2435903251171112,-0.1584760546684265,1.484615683555603,66.87212371826172,36.10797119140625,-65.25355529785156,16:32:6,10569950
2022-04-26 16:32:07.564602,0.2636098563671112,-0.2261030077934265,1.509518027305603,66.09349822998047,33.80262756347656,-70.35279083251953,16:32:6,10569960
2022-04-26 16:32:07.564602,0.3036489188671112,-0.2827436327934265,1.522457480430603,60.994258880615234,27.085067749023438,-78.12378692626953,16:32:6,10569969
2022-04-26 16:32:07.564602,0.3053579032421112,-0.3066694140434265,1.570553183555603,41.97135925292969,12.718655586242676,-67.68103790283203,16:32:6,10569978
2022-04-26 16:32:07.564602,0.2850942313671112,-0.3406049609184265,1.635250449180603,1.5896795988082886,6.29117488861084,-59.75737380981445,16:32:6,10569988
2022-04-26 16:32:07.564602,0.3410024344921112,-0.2834760546684265,1.578853964805603,-48.63932800292969,-6.456916809082031,-31.574167251586914,16:32:6,10569997
2022-04-26 16:32:07.611988,0.3295278251171112,-0.1921674609184265,1.535885214805603,-84.68512725830078,-22.533252716064453,-7.6352362632751465,16:32:6,10570007
2022-04-26 16:32:07.611988,0.3097524344921112,-0.09182566404342651,1.527096152305603,-105.81490325927734,-33.434017181396484,1.2960615158081055,16:32:6,10570016
2022-04-26 16:32:07.611988,0.2745961844921112,0.017549335956573486,1.509518027305603,-120.83779907226562,-41.60195541381836,16.471633911132812,16:32:6,10570025
2022-04-26 16:32:07.611988,0.2333364188671112,0.11129933595657349,1.474117636680603,-117.29581451416016,-44.80805969238281,18.21209144592285,16:32:6,10570035
2022-04-26 16:32:07.611988,0.1959829032421112,0.1982133984565735,1.440426230430603,-99.47901916503906,-42.85386276245117,16.609039306640625,16:32:6,10570044
2022-04-26 16:32:07.611988,0.1776723563671112,0.2577837109565735,1.412105917930603,-76.47138977050781,-39.58668899536133,12.120489120483398,16:32:6,10570054
2022-04-26 16:32:07.657067,0.1625356376171112,0.2983110547065735,1.399410605430603,-50.85306930541992,-32.548519134521484,7.998351573944092,16:32:6,10570063
2022-04-26 16:32:07.658164,0.1654653251171112,0.3000200390815735,1.369137167930603,-19.6774959564209,-27.647756576538086,-1.6352362632751465,16:32:6,10570072
2022-04-26 16:32:07.658164,0.1788930594921112,0.2651079297065735,1.353023886680603,10.414106369018555,-26.13630485534668,-9.238288879394531,16:32:6,10570082
2022-04-26 16:32:07.658164,0.1669301688671112,0.2253130078315735,1.330562949180603,33.452274322509766,-27.93783187866211,-13.986381530761719,16:32:6,10570091
2022-04-26 16:32:07.658164,0.1356801688671112,0.1562212109565735,1.339352011680603,45.26906967163086,-25.87676429748535,-11.28409194946289,16:32:6,10570101
2022-04-26 16:32:07.658164,0.1058950200676918,0.10006886720657349,1.348141074180603,49.498077392578125,-17.17447280883789,-5.665771007537842,16:32:6,10570110
2022-04-26 16:32:07.732795,0.1068715825676918,0.047822773456573486,1.332760214805603,55.34540557861328,-8.197375297546387,-5.238289833068848,16:32:6,10570120
2022-04-26 16:32:07.732795,0.1090688481926918,0.005098164081573486,1.338131308555603,61.97135925292969,0.23010623455047607,-6.505465030670166,16:32:6,10570129
2022-04-26 16:32:07.732795,0.1310414969921112,-0.042509257793426514,1.328609824180603,73.05532836914062,9.894227981567383,-15.146686553955078,16:32:6,10570138
2022-04-26 16:32:07.732795,0.1713247001171112,-0.11672800779342651,1.296871542930603,84.00189208984375,14.642319679260254,-22.70393943786621,16:32:6,10570148
2022-04-26 16:32:07.732795,0.1586293876171112,-0.1990033984184265,1.336178183555603,89.4064712524414,15.115602493286133,-36.30699157714844,16:32:6,10570157
2022-04-26 16:32:07.732795,0.1290883719921112,-0.2634565234184265,1.399898886680603,64.24617004394531,22.70339012145996,-24.780275344848633,16:32:6,10570167
2022-04-26 16:32:07.775400,0.1452016532421112,-0.2727338671684265,1.417965292930603,28.872121810913086,30.26064109802246,-3.543632984161377,16:32:6,10570176
2022-04-26 16:32:07.775495,0.1632680594921112,-0.2597944140434265,1.434810996055603,6.658381462097168,38.291175842285156,-0.15432024002075195,16:32:6,10570185
2022-04-26 16:32:07.775495,0.2289418876171112,-0.2185346484184265,1.418697714805603,-4.104976654052734,40.09270095825195,-4.490198135375977,16:32:6,10570195
2022-04-26 16:32:07.775495,0.2462758719921112,-0.1809369921684265,1.453853964805603,-22.639328002929688,35.22247314453125,6.273160934448242,16:32:6,10570204
2022-04-26 16:32:07.775495,0.2328481376171112,-0.1260053515434265,1.491939902305603,-39.6469612121582,32.184303283691406,15.005985260009766,16:32:6,10570214
2022-04-26 16:32:07.775495,0.2411489188671112,-0.059354960918426514,1.511471152305603,-50.120243072509766,32.504913330078125,21.95254898071289,16:32:6,10570223
2022-04-26 16:32:07.846938,0.2631215751171112,-0.0019819140434265137,1.520992636680603,-46.83780288696289,29.68048858642578,21.189189910888672,16:32:6,10570232
2022-04-26 16:32:07.846938,0.2926625907421112,0.048799335956573486,1.501705527305603,-31.43321990966797,26.24537467956543,14.013618469238281,16:32:6,10570242
2022-04-26 16:32:07.846938,0.3187856376171112,0.053926289081573486,1.498775839805603,-8.624061584472656,17.726289749145508,-0.688671350479126,16:32:6,10570251
2022-04-26 16:32:07.846938,0.3107289969921112,0.037568867206573486,1.526119589805603,2.2156338691711426,6.932396411895752,-2.2001218795776367,16:32:6,10570261
2022-04-26 16:32:07.846938,0.3121938407421112,0.008760273456573486,1.502193808555603,10.169832229614258,-2.4569168090820312,-5.2230224609375,16:32:6,10570270
2022-04-26 16:32:07.846938,0.2907094657421112,-0.024198710918426514,1.484371542930603,17.131664276123047,-10.273711204528809,-8.459663391113281,16:32:6,10570279
2022-04-26 16:32:07.894426,0.2509145438671112,-0.060331523418426514,1.484127402305603,16.368305206298828,-15.754626274108887,-7.58943510055542,16:32:6,10570289
2022-04-26 16:32:07.894426,0.2272329032421112,-0.09182566404342651,1.467281699180603,13.711816787719727,-13.159207344055176,-4.734472751617432,16:32:6,10570298
2022-04-26 16:32:07.894426,0.2243032157421112,-0.11038035154342651,1.436275839805603,13.02479362487793,-12.075237274169922,-8.215389251708984,16:32:6,10570308
2022-04-26 16:32:07.894426,0.2001332938671112,-0.1347944140434265,1.428951621055603,5.803420066833496,-10.609588623046875,-4.184854507446289,16:32:7,10570317
2022-04-26 16:32:07.894426,0.1786489188671112,-0.1365033984184265,1.416256308555603,-0.853068470954895,-3.861496925354004,-3.406228542327881,16:32:7,10570326
2022-04-26 16:32:07.894426,0.1920766532421112,-0.1401655077934265,1.417477011680603,-4.91413688659668,2.7033886909484863,-5.039816379547119,16:32:7,10570336
2022-04-26 16:32:07.939987,0.1849965751171112,-0.1267377734184265,1.437252402305603,-12.547725677490234,7.4820146560668945,-2.3833279609680176,16:32:7,10570345
2022-04-26 16:32:07.939987,0.1918325126171112,-0.11355417966842651,1.469234824180603,-19.036273956298828,12.642319679260254,-0.24592328071594238,16:32:7,10570355
2022-04-26 16:32:07.939987,0.2245473563671112,-0.08010691404342651,1.499019980430603,-29.082077026367188,13.023999214172363,5.433465957641602,16:32:7,10570364
2022-04-26 16:32:07.939987,0.2509145438671112,-0.027128398418426514,1.489986777305603,-33.8912353515625,9.115602493286133,9.769344329833984,16:32:7,10570373
2022-04-26 16:32:07.940986,0.2523793876171112,0.0009477734565734863,1.494381308555603,-27.326351165771484,5.4820146560668945,6.624305725097656,16:32:7,10570383
2022-04-26 16:32:07.940986,0.2584829032421112,0.017793476581573486,1.492184042930603,-16.685129165649414,3.1919384002685547,0.7769775390625,16:32:7,10570392
2022-04-26 16:32:08.010321,0.2787465751171112,0.022920429706573486,1.488521933555603,-3.3110837936401367,-2.28897762298584,-5.971113681793213,16:32:7,10570402
2022-04-26 16:32:08.010546,0.2689809501171112,0.0031450390815734863,1.502437949180603,5.9255571365356445,-6.777527332305908,-8.932945251464844,16:32:7,10570411
2022-04-26 16:32:08.010546,0.2777700126171112,-0.017606914043426514,1.469967246055603,13.498076438903809,-10.456916809082031,-14.703939437866211,16:32:7,10570421
2022-04-26 16:32:08.010546,0.2741079032421112,-0.047636210918426514,1.453609824180603,13.31486988067627,-17.632488250732422,-11.2230224609375,16:32:7,10570430
2022-04-26 16:32:08.010546,0.2499379813671112,-0.06887644529342651,1.455318808555603,10.169832229614258,-22.502717971801758,-9.986381530761719,16:32:7,10570439
2022-04-26 16:32:08.010546,0.2108754813671112,-0.08621042966842651,1.466305136680603,-0.9599387645721436,-24.884397506713867,-4.230656147003174,16:32:7,10570449
2022-04-26 16:32:08.057375,0.1893911063671112,-0.08352488279342651,1.429928183555603,-16.685129165649414,-20.502717971801758,7.983084201812744,16:32:7,10570458
2022-04-26 16:32:08.057375,0.1864614188671112,-0.049589335918426514,1.419185996055603,-23.448488235473633,-17.73935890197754,11.525068283081055,16:32:7,10570468
2022-04-26 16:32:08.057375,0.1744985282421112,-0.025175273418426514,1.404049277305603,-22.089710235595703,-13.830963134765625,11.479267120361328,16:32:7,10570477
2022-04-26 16:32:08.057375,0.1737661063671112,0.0036333203315734863,1.400387167930603,-14.471389770507812,-8.73172664642334,6.944916248321533,16:32:7,10570486
2022-04-26 16:32:08.058420,0.1681508719921112,0.0029008984565734863,1.395260214805603,-4.6393280029296875,-5.830962181091309,1.7846111059188843,16:32:7,10570496
2022-04-26 16:32:08.058420,0.1647329032421112,-0.0022260546684265137,1.403316855430603,2.597313165664673,0.5049153566360474,-1.4825644493103027,16:32:7,10570505
2022-04-26 16:32:08.128995,0.1889028251171112,-0.014433085918426514,1.395260214805603,11.681282043457031,2.7033886909484863,-9.787908554077148,16:32:7,10570515
2022-04-26 16:32:08.128995,0.1830434501171112,-0.029569804668426514,1.417232871055603,9.818687438964844,3.0545337200164795,-5.482564449310303,16:32:7,10570524
2022-04-26 16:32:08.128995,0.1769399344921112,-0.047392070293426514,1.428707480430603,4.353038311004639,6.871327877044678,-2.9482131004333496,16:32:7,10570533
2022-04-26 16:32:08.128995,0.1862172782421112,-0.037626445293426514,1.414059042930603,-2.9599387645721436,6.046900272369385,3.5708706378936768,16:32:7,10570543
2022-04-26 16:32:08.128995,0.1698598563671112,-0.042753398418426514,1.455074667930603,-6.62406063079834,7.497282028198242,7.8304123878479,16:32:7,10570552
2022-04-26 16:32:08.128995,0.1810903251171112,-0.030790507793426514,1.436275839805603,-3.2805495262145996,12.810258865356445,3.2960615158081055,16:32:7,10570562
2022-04-26 16:32:08.175492,0.1840200126171112,-0.022489726543426514,1.440670371055603,2.3225040435791016,14.367510795593262,0.5632370710372925,16:32:7,10570571
2022-04-26 16:32:08.175492,0.1969594657421112,-0.028104960918426514,1.458980917930603,6.261435508728027,16.291175842285156,-1.5130987167358398,16:32:7,10570580
2022-04-26 16:32:08.175492,0.2135610282421112,-0.010038554668426514,1.445797324180603,9.635480880737305,15.955296516418457,-0.902411699295044,16:32:7,10570590
2022-04-26 16:32:08.175492,0.2247914969921112,-0.025663554668426514,1.446773886680603,16.795785903930664,15.283540725708008,-7.8489766120910645,16:32:7,10570599
2022-04-26 16:32:08.175492,0.2330922782421112,-0.030546367168426514,1.453365683555603,16.30723762512207,8.550716400146484,-5.58943510055542,16:32:7,10570609
2022-04-26 16:32:08.175492,0.1925649344921112,-0.037626445293426514,1.476803183555603,8.73471736907959,7.772090911865234,3.784611225128174,16:32:7,10570618
2022-04-26 16:32:08.222702,0.1854848563671112,-0.036161601543426514,1.477779746055603,7.9713592529296875,14.550716400146484,2.3036949634552,16:32:7,10570627
2022-04-26 16:32:08.222702,0.2201528251171112,-0.019315898418426514,1.466793417930603,11.192732810974121,16.96293067932129,4.639573097229004,16:32:7,10570637
2022-04-26 16:32:08.222702,0.2418813407421112,-0.015409648418426514,1.482906699180603,20.673648834228516,13.955296516418457,-2.9940147399902344,16:32:7,10570646
2022-04-26 16:32:08.222702,0.2357778251171112,-0.026395976543426514,1.514400839805603,24.230899810791016,12.245372772216797,-5.665771007537842,16:32:7,10570656
2022-04-26 16:32:08.222702,0.2567739188671112,-0.005399882793426514,1.480465292930603,23.696550369262695,6.9476637840271,0.3952980041503906,16:32:7,10570665
2022-04-26 16:32:08.222702,0.2499379813671112,-0.015897929668426514,1.487789511680603,25.162199020385742,2.932396411895752,2.3952980041503906,16:32:7,10570674
2022-04-26 16:32:08.292271,0.2521352469921112,0.005098164081573486,1.479000449180603,30.795785903930664,-2.8385958671569824,5.693007946014404,16:32:7,10570684
2022-04-26 16:32:08.292271,0.2340688407421112,0.0019243359565734863,1.481441855430603,30.719449996948242,-0.9760006666183472,7.143389701843262,16:32:7,10570693
2022-04-26 16:32:08.293296,0.2416372001171112,-0.004179179668426514,1.460934042930603,43.788150787353516,-7.739359378814697,-3.6352362632751465,16:32:7,10570703
2022-04-26 16:32:08.293347,0.1952504813671112,-0.027128398418426514,1.493893027305603,35.26906967163086,-10.914932250976562,6.807511806488037,16:32:7,10570712
2022-04-26 16:32:08.293347,0.1688832938671112,-0.028593242168426514,1.468014121055603,24.45990753173828,-5.14393949508667,19.11285400390625,16:32:7,10570721
2022-04-26 16:32:08.293347,0.1815786063671112,-0.007597148418426514,1.469723105430603,25.02479362487793,-0.8691304922103882,13.341863632202148,16:32:7,10570731
2022-04-26 16:32:08.341371,0.1693715751171112,-0.0007612109184265137,1.455318808555603,27.498075485229492,1.8636939525604248,17.8762149810791,16:32:7,10570740
2022-04-26 16:32:08.341371,0.1627797782421112,0.032441914081573486,1.467281699180603,28.24616813659668,10.718655586242676,22.624305725097656,16:32:7,10570750
2022-04-26 16:32:08.341371,0.1801137626171112,0.030244648456573486,1.459469199180603,38.12403106689453,15.711021423339844,13.402931213378906,16:32:7,10570759
2022-04-26 16:32:08.341371,0.0858754888176918,-0.035429179668426514,1.404049277305603,-154.2729034423828,-39.327144622802734,186.27316284179688,16:32:7,10570769
2022-04-26 16:32:08.341371,0.0419301763176918,0.2160356640815735,1.545894980430603,-15.219480514526367,1.802625298500061,-55.23828887939453,16:32:7,10570778
2022-04-26 16:32:08.342440,0.2399282157421112,0.3009966015815735,1.380611777305603,-43.372154235839844,-10.38058090209961,58.91438293457031,16:32:7,10570787
2022-04-26 16:32:08.422158,0.0538930669426918,0.2751176953315735,1.524166464805603,-6.227114677429199,-4.991267681121826,34.273162841796875,16:32:7,10570797
2022-04-26 16:32:08.422158,0.011656738817691803,0.1994341015815735,1.430416464805603,-53.25001525878906,-19.021800994873047,19.479267120361328,16:32:7,10570806
2022-04-26 16:32:08.423263,0.2662954032421112,-0.06814402341842651,1.683102011680603,-90.42559051513672,-32.8691291809082,85.32659912109375,16:32:7,10570816
2022-04-26 16:32:08.423285,0.3004750907421112,-0.1858198046684265,1.488766074180603,-72.88360595703125,-37.372947692871094,81.72354125976562,16:32:7,10570825
2022-04-26 16:32:08.423285,0.2077016532421112,-0.1291791796684265,1.470943808555603,-68.99047088623047,-25.922565460205078,55.28079605102539,16:32:7,10570834
2022-04-26 16:32:08.423285,0.1701039969921112,0.037568867206573486,1.379146933555603,-67.09734344482422,-34.39584732055664,54.9754524230957,16:32:7,10570844
2022-04-26 16:32:08.457768,0.1471547782421112,-0.2451459765434265,1.390865683555603,-67.83016967773438,-38.77752685546875,70.53270721435547,16:32:7,10570853
2022-04-26 16:32:08.457768,0.0885610356926918,-0.2121869921684265,1.338863730430603,-41.738563537597656,-23.55615234375,8.39529800415039,16:32:7,10570863
2022-04-26 16:32:08.457768,0.1615590751171112,-0.1606733202934265,1.356685996055603,-48.36452102661133,-23.785160064697266,6.654839992523193,16:32:7,10570872
2022-04-26 16:32:08.457768,0.1564321219921112,-0.08596628904342651,1.382076621055603,-62.68513107299805,-23.189741134643555,31.082321166992188,16:32:7,10570881
2022-04-26 16:32:08.457768,0.1356801688671112,-0.07497996091842651,1.355709433555603,-63.47901916503906,-22.243175506591797,31.830411911010742,16:32:7,10570891
2022-04-26 16:32:08.457768,0.1383657157421112,-0.045194804668426514,1.283443808555603,-61.784366607666016,-21.006534576416016,38.42583465576172,16:32:7,10570900
2022-04-26 16:32:08.505312,0.1139516606926918,0.0033891797065734863,1.317867636680603,-46.70039749145508,-19.93783187866211,30.670106887817383,16:32:7,10570910
2022-04-26 16:32:08.505312,0.1867055594921112,-0.10940378904342651,1.431148886680603,-66.24237823486328,-14.426383018493652,50.94491958618164,16:32:7,10570919
2022-04-26 16:32:08.505312,0.1215200200676918,-0.09499949216842651,1.350338339805603,-56.25764846801758,-23.892030715942383,71.63194274902344,16:32:7,10570928
2022-04-26 16:32:08.505312,0.029234863817691803,-0.003935039043426514,1.298580527305603,-45.29581832885742,-23.968366622924805,46.44110107421875,16:32:7,10570938
2022-04-26 16:32:08.505312,-0.015442870557308197,-0.058866679668426514,1.283687949180603,-36.76146697998047,-5.556153297424316,38.91438293457031,16:32:7,10570947
2022-04-26 16:32:08.506314,0.0551137700676918,-0.09329050779342651,1.282223105430603,-23.6774959564209,-2.3653135299682617,12.502168655395508,16:32:7,10570957
2022-04-26 16:32:08.573134,0.0678090825676918,-0.032255351543426514,1.359371542930603,-19.81490135192871,-1.4034816026687622,24.822778701782227,16:32:7,10570966
2022-04-26 16:32:08.574134,0.0783071294426918,-0.061308085918426514,1.317623496055603,-24.01337432861328,-4.56378698348999,26.059419631958008,16:32:7,10570975
2022-04-26 16:32:08.574134,0.0536489263176918,-0.08328074216842651,1.299312949180603,-24.089710235595703,-3.327145576477051,24.364763259887695,16:32:7,10570985
2022-04-26 16:32:08.574134,0.0336293950676918,-0.07644480466842651,1.291012167930603,-21.082077026367188,0.3827779293060303,20.65484046936035,16:32:7,10570994
2022-04-26 16:32:08.574134,0.0448598638176918,-0.08450144529342651,1.297848105430603,-17.23474884033203,0.7644573450088501,13.005985260009766,16:32:7,10571004
2022-04-26 16:32:08.574134,0.028746582567691803,-0.036894023418426514,1.312496542930603,-13.280550003051758,4.214838981628418,13.296060562133789,16:32:7,10571013
2022-04-26 16:32:08.574134,0.0497426763176918,-0.11721628904342651,1.299068808555603,-5.2042131423950195,19.008731842041016,0.10522174835205078,16:32:7,10571022
2022-04-26 16:32:08.645463,0.1190786138176918,-0.046415507793426514,1.227291464805603,0.8873895406723022,14.336976051330566,2.8685805797576904,16:32:7,10571032
2022-04-26 16:32:08.645463,0.1315297782421112,-0.10134714841842651,1.279293417930603,4.398839950561523,6.794991970062256,-7.925312519073486,16:32:7,10571041
2022-04-26 16:32:08.645463,0.1781606376171112,-0.1282026171684265,1.361568808555603,-16.45612144470215,9.61941909790039,6.761710166931152,16:32:7,10571051
2022-04-26 16:32:08.645463,0.1862172782421112,-0.06912058591842651,1.311031699180603,-21.29581642150879,-13.663023948669434,29.983083724975586,16:32:7,10571060
2022-04-26 16:32:08.645463,0.1017446294426918,-0.061552226543426514,1.295650839805603,-3.9981067180633545,-28.71645736694336,-10.06271743774414,16:32:7,10571070
2022-04-26 16:32:08.645463,0.1198110356926918,-0.035917460918426514,1.318111777305603,10.490442276000977,-23.601953506469727,-17.46729850769043,16:32:7,10571079
2022-04-26 16:32:08.693523,0.026061035692691803,-0.09402292966842651,1.335445761680603,5.879755973815918,-44.884395599365234,0.9296492338180542,16:32:7,10571088
2022-04-26 16:32:08.693523,0.006285645067691803,-0.09817332029342651,1.315670371055603,-19.005741119384766,-15.434016227722168,11.61667251586914,16:32:7,10571098
2022-04-26 16:32:08.693523,-0.024964354932308197,-0.049833476543426514,1.270992636680603,-8.547725677490234,-36.884395599365234,18.273160934448242,16:32:7,10571107
2022-04-26 16:32:08.694650,-0.0593881830573082,-0.11453074216842651,1.330807089805603,-3.9370381832122803,-20.182106018066406,-8.856609344482422,16:32:7,10571117
2022-04-26 16:32:08.694693,-0.013245604932308197,-0.06887644529342651,1.231197714805603,-4.395052909851074,-11.815695762634277,2.196824789047241,16:32:7,10571126
2022-04-26 16:32:08.694693,-0.0454721674323082,-0.032743632793426514,1.223629355430603,-16.31871795654297,-5.082870960235596,16.364763259887695,16:32:7,10571135
2022-04-26 16:32:08.740425,-0.020569823682308197,-0.049589335918426514,1.233394980430603,0.8873895406723022,-0.8538633584976196,-2.0932517051696777,16:32:7,10571145
2022-04-26 16:32:08.740447,-0.007386229932308197,-0.07327097654342651,1.249264121055603,3.803420066833496,2.5965185165405273,-3.971114158630371,16:32:7,10571154
2022-04-26 16:32:08.740447,0.029479004442691803,-0.06887644529342651,1.283443808555603,4.414107322692871,6.825526237487793,-11.070350646972656,16:32:7,10571164
2022-04-26 16:32:08.740447,0.0729360356926918,-0.059599101543426514,1.301754355430603,3.833954334259033,4.169037342071533,-4.413862228393555,16:32:7,10571173
2022-04-26 16:32:08.740447,0.0590200200676918,-0.08840769529342651,1.297359824180603,-4.486656188964844,2.0927016735076904,4.059420108795166,16:32:7,10571182
2022-04-26 16:32:08.740447,0.0526723638176918,-0.07449167966842651,1.291988730430603,-10.242382049560547,1.268274188041687,11.509801864624023,16:32:7,10571192
2022-04-26 16:32:08.809057,0.0363149419426918,-0.06594675779342651,1.285641074180603,-8.486656188964844,-1.021802306175232,10.410565376281738,16:32:7,10571201
2022-04-26 16:32:08.809057,0.024107910692691803,-0.07180613279342651,1.278805136680603,-5.524824142456055,0.4285794496536255,5.693007946014404,16:32:7,10571211
2022-04-26 16:32:08.809057,0.0338735356926918,-0.06741160154342651,1.277584433555603,-2.0286409854888916,1.573617696762085,0.9143821001052856,16:32:7,10571220
2022-04-26 16:32:08.809057,0.0377797856926918,-0.07522410154342651,1.289791464805603,-0.51719069480896,1.8484268188476562,-0.6581370830535889,16:32:7,10571229
2022-04-26 16:32:08.809057,0.0475454106926918,-0.07229441404342651,1.282467246055603,-1.8454349040985107,1.4667474031448364,0.5327026844024658,16:32:7,10571239
2022-04-26 16:32:08.809057,0.0473012700676918,-0.07327097654342651,1.296139121055603,-3.8149006366729736,0.5201825499534607,3.494534730911255,16:32:7,10571248
2022-04-26 16:32:08.861554,0.0414418950676918,-0.07766550779342651,1.285152792930603,-5.143144607543945,0.13850319385528564,5.326595783233643,16:32:7,10571258
2022-04-26 16:32:08.861554,0.0404653325676918,-0.07351511716842651,1.285152792930603,-5.234747886657715,0.5354496836662292,5.26552677154541,16:32:7,10571267
2022-04-26 16:32:08.861554,0.0319204106926918,-0.07424753904342651,1.274654746055603,-3.9217708110809326,0.9781978130340576,3.63193941116333,16:32:7,10571276
2022-04-26 16:32:08.861554,0.0363149419426918,-0.07742136716842651,1.282955527305603,-2.7919998168945312,1.1308695077896118,2.1204888820648193,16:32:7,10571286
2022-04-26 16:32:08.861554,0.0333852544426918,-0.07205027341842651,1.282467246055603,-2.3797860145568848,1.3446099758148193,1.7235424518585205,16:32:7,10571295
2022-04-26 16:32:08.861554,0.0397329106926918,-0.07717722654342651,1.287838339805603,-2.6393280029296875,0.8102588653564453,2.166290521621704,16:32:7,10571305
2022-04-26 16:32:08.908479,0.0385122075676918,-0.08669871091842651,1.276363730430603,-3.1431448459625244,0.3980451226234436,2.7311758995056152,16:32:8,10571314
2022-04-26 16:32:08.909585,0.0324086919426918,-0.07888621091842651,1.281734824180603,-3.585892915725708,0.41331231594085693,3.204458475112915,16:32:8,10571323
2022-04-26 16:32:08.909585,0.0372915044426918,-0.07400339841842651,1.290035605430603,-3.66222882270813,0.5201825499534607,3.1586568355560303,16:32:8,10571333
2022-04-26 16:32:08.909585,0.0368032231926918,-0.07205027341842651,1.280025839805603,-3.158411979675293,0.9323962926864624,2.7311758995056152,16:32:8,10571342
2022-04-26 16:32:08.909585,0.030455566942691803,-0.07571238279342651,1.271725058555603,-2.8988699913024902,1.0850679874420166,2.2273592948913574,16:32:8,10571352
2022-04-26 16:32:08.909585,0.030211426317691803,-0.07034128904342651,1.279781699180603,-2.944671630859375,1.3598772287368774,2.3647637367248535,16:32:8,10571361
2022-04-26 16:32:08.978430,0.030455566942691803,-0.07522410154342651,1.282467246055603,-2.9599387645721436,0.9629306197166443,2.7617104053497314,16:32:8,10571371
2022-04-26 16:32:08.978430,0.0365590825676918,-0.07620066404342651,1.280269980430603,-3.1736791133880615,0.8560603857040405,2.8380463123321533,16:32:8,10571380
2022-04-26 16:32:08.979461,0.0358266606926918,-0.07888621091842651,1.275143027305603,-3.265282154083252,1.1003352403640747,2.8685805797576904,16:32:8,10571389
2022-04-26 16:32:08.979576,0.031187988817691803,-0.07180613279342651,1.283687949180603,-3.082076072692871,1.0850679874420166,2.8685805797576904,16:32:8,10571399
2022-04-26 16:32:08.979576,0.0348500981926918,-0.07717722654342651,1.275143027305603,-2.9599387645721436,1.1614038944244385,2.593771457672119,16:32:8,10571408
2022-04-26 16:32:08.979576,0.031187988817691803,-0.07937449216842651,1.274166464805603,-2.730931043624878,1.2988084554672241,2.380030870437622,16:32:8,10571418
2022-04-26 16:32:09.031748,0.0375356450676918,-0.06960886716842651,1.276852011680603,-2.593526601791382,1.0850679874420166,2.196824789047241,16:32:8,10571427
2022-04-26 16:32:09.031748,0.0338735356926918,-0.07205027341842651,1.281002402305603,-2.5324578285217285,0.9323962926864624,2.1204888820648193,16:32:8,10571436
2022-04-26 16:32:09.031748,0.0326528325676918,-0.07449167966842651,1.283443808555603,-2.5629920959472656,0.9018619060516357,2.0746874809265137,16:32:8,10571446
2022-04-26 16:32:09.031748,0.0343618169426918,-0.07400339841842651,1.277340292930603,-2.654595136642456,0.8102588653564453,2.1510233879089355,16:32:8,10571455
2022-04-26 16:32:09.031748,0.0333852544426918,-0.07717722654342651,1.266842246055603,-2.6393280029296875,0.8407931923866272,2.028885841369629,16:32:8,10571465
2022-04-26 16:32:09.031748,0.0321645513176918,-0.07742136716842651,1.276119589805603,-2.4561219215393066,0.8407931923866272,2.3036949634552,16:32:8,10571474
2022-04-26 16:32:09.098145,0.0368032231926918,-0.07742136716842651,1.274898886680603,-2.4255876541137695,0.9629306197166443,1.9525500535964966,16:32:8,10571483
2022-04-26 16:32:09.098145,0.030943848192691803,-0.07644480466842651,1.274410605430603,-2.5629920959472656,1.2072054147720337,2.028885841369629,16:32:8,10571493
2022-04-26 16:32:09.098145,0.0314321294426918,-0.07327097654342651,1.274654746055603,-2.440854787826538,1.1003352403640747,2.105221748352051,16:32:8,10571502
2022-04-26 16:32:09.098145,0.027525879442691803,-0.07449167966842651,1.273434042930603,-2.4255876541137695,0.947663426399231,2.0136187076568604,16:32:8,10571512
2022-04-26 16:32:09.098145,0.0363149419426918,-0.06521433591842651,1.280269980430603,-2.3797860145568848,0.7186558246612549,1.616672158241272,16:32:8,10571521
2022-04-26 16:32:09.098145,0.0372915044426918,-0.07424753904342651,1.277096152305603,-2.3492517471313477,0.7339230179786682,1.7540767192840576,16:32:8,10571530
2022-04-26 16:32:09.158107,0.027770020067691803,-0.07620066404342651,1.276363730430603,-2.0744426250457764,0.9781978130340576,1.6472065448760986,16:32:8,10571540
2022-04-26 16:32:09.158107,0.025816895067691803,-0.07473582029342651,1.273922324180603,-2.4255876541137695,1.14613676071167,1.6930080652236938,16:32:8,10571549
2022-04-26 16:32:09.158107,0.028990723192691803,-0.07790964841842651,1.272457480430603,-2.4561219215393066,1.1003352403640747,1.9525500535964966,16:32:8,10571559
2022-04-26 16:32:09.158107,0.031187988817691803,-0.07961863279342651,1.273922324180603,-2.3797860145568848,1.1919382810592651,2.105221748352051,16:32:8,10571568
2022-04-26 16:32:09.158107,0.028258301317691803,-0.07302683591842651,1.272945761680603,-2.3797860145568848,0.9629306197166443,1.9067485332489014,16:32:8,10571577
2022-04-26 16:32:09.158107,0.026061035692691803,-0.07156199216842651,1.270016074180603,-2.4561219215393066,0.9018619060516357,1.8914813995361328,16:32:8,10571587
2022-04-26 16:32:09.191836,0.026793457567691803,-0.07668894529342651,1.280758261680603,-2.1049768924713135,0.9629306197166443,1.7540767192840576,16:32:8,10571596
2022-04-26 16:32:09.191836,0.0321645513176918,-0.07351511716842651,1.280514121055603,-2.272915840148926,0.8713275790214539,1.63193941116333,16:32:8,10571606
2022-04-26 16:32:09.191836,0.0368032231926918,-0.07668894529342651,1.273434042930603,-2.2118470668792725,0.947663426399231,1.616672158241272,16:32:8,10571615
2022-04-26 16:32:09.191836,0.026305176317691803,-0.07913035154342651,1.272213339805603,-2.3797860145568848,0.8407931923866272,1.845679759979248,16:32:8,10571624
2022-04-26 16:32:09.191836,0.027281738817691803,-0.07766550779342651,1.281734824180603,-2.3797860145568848,1.0545337200164795,1.845679759979248,16:32:8,10571634
2022-04-26 16:32:09.191836,0.027281738817691803,-0.07351511716842651,1.281734824180603,-2.3950531482696533,1.253006935119629,2.0899546146392822,16:32:8,10571643
2022-04-26 16:32:09.260475,0.027037598192691803,-0.06960886716842651,1.279293417930603,-2.196579933166504,1.176671028137207,1.8609468936920166,16:32:8,10571653
2022-04-26 16:32:09.260512,0.028502441942691803,-0.06936472654342651,1.273678183555603,-2.1813127994537354,1.1156023740768433,1.7540767192840576,16:32:8,10571662
2022-04-26 16:32:09.260512,0.026549316942691803,-0.07571238279342651,1.277828574180603,-2.227114200592041,1.0392664670944214,1.5250691175460815,16:32:8,10571672
2022-04-26 16:32:09.260512,0.027525879442691803,-0.06789988279342651,1.283199667930603,-2.120244026184082,0.7339230179786682,1.4334660768508911,16:32:8,10571681
2022-04-26 16:32:09.260512,0.025084473192691803,-0.07351511716842651,1.271969199180603,-1.982839584350586,0.9781978130340576,1.387664556503296,16:32:8,10571690
2022-04-26 16:32:09.260512,0.023131348192691803,-0.07473582029342651,1.284420371055603,-2.2423815727233887,1.2377398014068604,1.6472065448760986,16:32:8,10571700
2022-04-26 16:32:09.306951,0.025084473192691803,-0.07375925779342651,1.267330527305603,-2.1813127994537354,1.0087320804595947,1.7540767192840576,16:32:8,10571709
2022-04-26 16:32:09.306951,0.025084473192691803,-0.07766550779342651,1.277584433555603,-2.089709758758545,1.2072054147720337,1.845679759979248,16:32:8,10571719
2022-04-26 16:32:09.306951,0.024352051317691803,-0.07668894529342651,1.267330527305603,-2.2118470668792725,1.1614038944244385,1.5708706378936768,16:32:8,10571728
2022-04-26 16:32:09.306951,0.021910645067691803,-0.07424753904342651,1.282223105430603,-2.013373851776123,1.069800853729248,1.387664556503296,16:32:8,10571737
2022-04-26 16:32:09.306951,0.025816895067691803,-0.07644480466842651,1.277828574180603,-2.089709758758545,0.9323962926864624,1.4945347309112549,16:32:8,10571747
2022-04-26 16:32:09.306951,0.028746582567691803,-0.08108347654342651,1.271480917930603,-2.0286409854888916,0.8102588653564453,1.4792675971984863,16:32:8,10571756
2022-04-26 16:32:09.378793,0.031187988817691803,-0.07742136716842651,1.269771933555603,-2.166045665740967,1.069800853729248,1.616672158241272,16:32:8,10571766
2022-04-26 16:32:09.378793,0.028990723192691803,-0.08035105466842651,1.273922324180603,-2.04390811920166,1.1003352403640747,1.5708706378936768,16:32:8,10571775
2022-04-26 16:32:09.379831,0.024596191942691803,-0.07424753904342651,1.276852011680603,-2.0744426250457764,1.1614038944244385,1.5250691175460815,16:32:8,10571784
2022-04-26 16:32:09.379982,0.026305176317691803,-0.07156199216842651,1.270504355430603,-1.9981067180633545,1.1614038944244385,1.6014049053192139,16:32:8,10571794
2022-04-26 16:32:09.379982,0.029234863817691803,-0.07180613279342651,1.277096152305603,-2.089709758758545,1.0087320804595947,1.5861377716064453,16:32:8,10571803
2022-04-26 16:32:09.379982,0.028014160692691803,-0.06936472654342651,1.272945761680603,-2.0744426250457764,0.8560603857040405,1.5098018646240234,16:32:8,10571813
2022-04-26 16:32:09.425877,0.025084473192691803,-0.07351511716842651,1.271480917930603,-1.9523050785064697,0.794991672039032,1.2807942628860474,16:32:8,10571822
2022-04-26 16:32:09.426909,0.026793457567691803,-0.07644480466842651,1.263180136680603,-1.906503677368164,0.9171290993690491,1.112855315208435,16:32:8,10571831
2022-04-26 16:32:09.427006,0.023375488817691803,-0.07522410154342651,1.274898886680603,-1.8759691715240479,0.9323962926864624,1.2502599954605103,16:32:8,10571841
2022-04-26 16:32:09.427006,0.026061035692691803,-0.07180613279342651,1.272457480430603,-1.8912365436553955,1.2224726676940918,1.4487332105636597,16:32:8,10571850
2022-04-26 16:32:09.427006,0.030943848192691803,-0.07205027341842651,1.273922324180603,-2.2118470668792725,1.14613676071167,1.6014049053192139,16:32:8,10571860
2022-04-26 16:32:09.427006,0.026793457567691803,-0.07278269529342651,1.267086386680603,-1.9981067180633545,1.0850679874420166,1.5861377716064453,16:32:8,10571869
2022-04-26 16:32:09.474460,0.027770020067691803,-0.07009714841842651,1.264400839805603,-2.059175491333008,1.1614038944244385,1.4029316902160645,16:32:8,10571878
2022-04-26 16:32:09.474554,0.026305176317691803,-0.06887644529342651,1.278316855430603,-1.8607020378112793,0.8102588653564453,1.189191222190857,16:32:8,10571888
2022-04-26 16:32:09.474554,0.027770020067691803,-0.07790964841842651,1.275143027305603,-1.8149006366729736,1.0392664670944214,0.9449164867401123,16:32:8,10571897
2022-04-26 16:32:09.474554,0.019713379442691803,-0.07742136716842651,1.271969199180603,-1.8301677703857422,0.9171290993690491,0.9601836204528809,16:32:8,10571907
2022-04-26 16:32:09.474554,0.030455566942691803,-0.07961863279342651,1.271236777305603,-1.8607020378112793,1.069800853729248,1.2655271291732788,16:32:8,10571916
2022-04-26 16:32:09.474554,0.020689941942691803,-0.07644480466842651,1.270260214805603,-1.8301677703857422,1.2072054147720337,1.3571301698684692,16:32:8,10571925
2022-04-26 16:32:09.567638,0.020689941942691803,-0.07156199216842651,1.265621542930603,-1.8454349040985107,1.0545337200164795,1.3571301698684692,16:32:8,10571935
2022-04-26 16:32:09.567638,0.024596191942691803,-0.07644480466842651,1.265865683555603,-1.9675722122192383,1.1614038944244385,1.2197256088256836,16:32:8,10571944
2022-04-26 16:32:09.567638,0.020689941942691803,-0.06326121091842651,1.264400839805603,-1.9523050785064697,1.0545337200164795,1.204458475112915,16:32:8,10571954
2022-04-26 16:32:09.567638,0.029723145067691803,-0.07400339841842651,1.271969199180603,-1.7843661308288574,0.9323962926864624,1.2349927425384521,16:32:8,10571963
2022-04-26 16:32:09.567638,0.028990723192691803,-0.07424753904342651,1.264889121055603,-1.8607020378112793,0.8865947723388672,1.082321047782898,16:32:8,10571972
2022-04-26 16:32:09.568671,0.0346059575676918,-0.07546824216842651,1.272945761680603,-1.8149006366729736,0.9018619060516357,1.2502599954605103,16:32:8,10571982
2022-04-26 16:32:09.589846,0.023619629442691803,-0.07595652341842651,1.274166464805603,-1.8759691715240479,1.0545337200164795,1.1586569547653198,16:32:8,10571991
2022-04-26 16:32:09.589846,0.021910645067691803,-0.07229441404342651,1.270504355430603,-1.982839584350586,1.2072054147720337,1.5861377716064453,16:32:8,10572001
2022-04-26 16:32:09.589846,0.021422363817691803,-0.07449167966842651,1.274410605430603,-1.982839584350586,1.4362130165100098,1.6472065448760986,16:32:8,10572010
2022-04-26 16:32:09.589846,0.021422363817691803,-0.07986277341842651,1.274410605430603,-2.0286409854888916,1.3140757083892822,1.2197256088256836,16:32:8,10572020
2022-04-26 16:32:09.590849,0.026793457567691803,-0.07864207029342651,1.270016074180603,-1.8912365436553955,1.2377398014068604,1.3265957832336426,16:32:8,10572029
2022-04-26 16:32:09.590978,0.021422363817691803,-0.07400339841842651,1.270748496055603,-1.7385647296905518,1.0850679874420166,1.204458475112915,16:32:8,10572038
2022-04-26 16:32:09.668748,0.028258301317691803,-0.07302683591842651,1.273189902305603,-1.7385647296905518,1.0087320804595947,1.0365195274353027,16:32:8,10572048
2022-04-26 16:32:09.668748,0.019225098192691803,-0.07473582029342651,1.271725058555603,-1.7538318634033203,0.9781978130340576,1.1281225681304932,16:32:8,10572057
2022-04-26 16:32:09.668748,0.018736816942691803,-0.08157175779342651,1.271480917930603,-1.6774959564208984,1.0392664670944214,1.189191222190857,16:32:8,10572067
2022-04-26 16:32:09.668748,0.021910645067691803,-0.09084910154342651,1.275631308555603,-1.8149006366729736,1.1919382810592651,1.418198823928833,16:32:8,10572076
2022-04-26 16:32:09.668748,0.017760254442691803,-0.07156199216842651,1.274654746055603,-1.8301677703857422,1.3293428421020508,1.5250691175460815,16:32:8,10572085
2022-04-26 16:32:09.669855,0.020689941942691803,-0.06814402341842651,1.270992636680603,-1.799633502960205,1.2988084554672241,1.2197256088256836,16:32:8,10572095
2022-04-26 16:32:09.669904,0.021910645067691803,-0.07937449216842651,1.270504355430603,-1.799633502960205,0.947663426399231,1.0975881814956665,16:32:8,10572104
2022-04-26 16:32:09.709409,0.020934082567691803,-0.07400339841842651,1.275143027305603,-1.585892915725708,0.8865947723388672,1.0212522745132446,16:32:8,10572114
2022-04-26 16:32:09.709409,0.025084473192691803,-0.07424753904342651,1.268795371055603,-1.7080304622650146,1.1003352403640747,0.8991149663925171,16:32:8,10572123
2022-04-26 16:32:09.709409,0.021178223192691803,-0.07375925779342651,1.265865683555603,-1.8301677703857422,0.9781978130340576,1.2502599954605103,16:32:8,10572132
2022-04-26 16:32:09.709409,0.029723145067691803,-0.07864207029342651,1.262935996055603,-1.6316945552825928,1.2377398014068604,1.2807942628860474,16:32:8,10572142
2022-04-26 16:32:09.709409,0.019225098192691803,-0.07424753904342651,1.274898886680603,-1.8454349040985107,1.1919382810592651,1.311328649520874,16:32:8,10572151
2022-04-26 16:32:09.709409,0.020445801317691803,-0.07449167966842651,1.272457480430603,-1.7690989971160889,1.176671028137207,1.5708706378936768,16:32:8,10572161
2022-04-26 16:32:09.779373,0.018736816942691803,-0.07571238279342651,1.270260214805603,-1.8607020378112793,1.0850679874420166,1.1586569547653198,16:32:8,10572170
2022-04-26 16:32:09.779373,0.021910645067691803,-0.07302683591842651,1.270748496055603,-1.7538318634033203,1.1308695077896118,1.0212522745132446,16:32:8,10572179
2022-04-26 16:32:09.779373,0.022398926317691803,-0.07937449216842651,1.269039511680603,-1.7538318634033203,0.9629306197166443,1.112855315208435,16:32:8,10572189
2022-04-26 16:32:09.779373,0.028014160692691803,-0.07229441404342651,1.270260214805603,-1.6011600494384766,1.1156023740768433,1.005985140800476,16:32:8,10572198
2022-04-26 16:32:09.779373,0.021910645067691803,-0.07790964841842651,1.269771933555603,-1.6622288227081299,1.0850679874420166,1.1739240884780884,16:32:8,10572208
2022-04-26 16:32:09.779373,0.027525879442691803,-0.07888621091842651,1.262691855430603,-1.799633502960205,1.14613676071167,1.1281225681304932,16:32:8,10572217
2022-04-26 16:32:09.825094,0.027037598192691803,-0.08132761716842651,1.271969199180603,-1.8301677703857422,1.176671028137207,1.3418630361557007,16:32:8,10572226
2022-04-26 16:32:09.825094,0.023131348192691803,-0.07522410154342651,1.262935996055603,-1.692763090133667,1.2224726676940918,1.2502599954605103,16:32:8,10572236
2022-04-26 16:32:09.825094,0.020689941942691803,-0.07229441404342651,1.268795371055603,-1.6164271831512451,1.14613676071167,1.2349927425384521,16:32:8,10572245
2022-04-26 16:32:09.825094,0.020445801317691803,-0.07058542966842651,1.267330527305603,-1.7538318634033203,1.0545337200164795,0.9907180070877075,16:32:8,10572255
2022-04-26 16:32:09.825094,0.022643066942691803,-0.07205027341842651,1.267574667930603,-1.5248241424560547,0.8713275790214539,1.0365195274353027,16:32:8,10572264
2022-04-26 16:32:09.826201,0.015562988817691803,-0.07595652341842651,1.265621542930603,-1.692763090133667,0.947663426399231,0.7464431524276733,16:32:8,10572273
2022-04-26 16:32:09.896417,0.014098145067691803,-0.07131785154342651,1.270748496055603,-1.7538318634033203,1.0850679874420166,1.1281225681304932,16:32:8,10572283
2022-04-26 16:32:09.896417,0.018248535692691803,-0.08035105466842651,1.273189902305603,-1.7690989971160889,1.14613676071167,1.4334660768508911,16:32:8,10572292
2022-04-26 16:32:09.896417,0.020445801317691803,-0.07961863279342651,1.261959433555603,-1.6622288227081299,1.3446099758148193,1.189191222190857,16:32:8,10572302
2022-04-26 16:32:09.896417,0.022154785692691803,-0.07546824216842651,1.266109824180603,-1.9370379447937012,1.253006935119629,1.082321047782898,16:32:9,10572311
2022-04-26 16:32:09.896417,0.013609863817691803,-0.07620066404342651,1.268795371055603,-1.8759691715240479,1.1614038944244385,1.189191222190857,16:32:9,10572321
2022-04-26 16:32:09.897453,0.018004395067691803,-0.07449167966842651,1.260006308555603,-1.4942898750305176,0.9781978130340576,0.9907180070877075,16:32:9,10572330
2022-04-26 16:32:09.944320,0.019469238817691803,-0.07620066404342651,1.270260214805603,-1.6011600494384766,1.0392664670944214,0.8991149663925171,16:32:9,10572339
2022-04-26 16:32:09.944320,0.022154785692691803,-0.07302683591842651,1.275143027305603,-1.5095570087432861,1.1156023740768433,0.9296492338180542,16:32:9,10572349
2022-04-26 16:32:09.944320,0.018248535692691803,-0.07375925779342651,1.271236777305603,-1.7538318634033203,1.069800853729248,1.082321047782898,16:32:9,10572358
2022-04-26 16:32:09.944320,0.017271973192691803,-0.07449167966842651,1.274166464805603,-1.8607020378112793,1.3140757083892822,1.2502599954605103,16:32:9,10572368
2022-04-26 16:32:09.944320,0.017271973192691803,-0.07546824216842651,1.274410605430603,-1.7538318634033203,1.2072054147720337,1.387664556503296,16:32:9,10572377
2022-04-26 16:32:09.944320,0.023863770067691803,-0.06960886716842651,1.263912558555603,-1.5400915145874023,1.253006935119629,1.1433897018432617,16:32:9,10572386
2022-04-26 16:32:09.991798,0.022398926317691803,-0.07644480466842651,1.271725058555603,-1.6469616889953613,1.1308695077896118,0.9907180070877075,16:32:9,10572396
2022-04-26 16:32:09.991798,0.025084473192691803,-0.07864207029342651,1.265377402305603,-1.479022741317749,0.9323962926864624,0.8227790594100952,16:32:9,10572405
2022-04-26 16:32:09.991798,0.018980957567691803,-0.07205027341842651,1.276852011680603,-1.6469616889953613,1.0239993333816528,0.7922446727752686,16:32:9,10572415
2022-04-26 16:32:09.991798,0.009215332567691803,-0.07742136716842651,1.279781699180603,-1.7232975959777832,1.2072054147720337,1.1586569547653198,16:32:9,10572424
2022-04-26 16:32:09.991798,0.016051270067691803,-0.07986277341842651,1.273189902305603,-1.692763090133667,1.2072054147720337,1.1739240884780884,16:32:9,10572433
2022-04-26 16:32:09.991798,0.017516113817691803,-0.07546824216842651,1.267574667930603,-1.8301677703857422,1.4209458827972412,1.1739240884780884,16:32:9,10572443
2022-04-26 16:32:10.060479,0.018248535692691803,-0.07375925779342651,1.271725058555603,-1.8759691715240479,1.2988084554672241,1.1739240884780884,16:32:9,10572452
2022-04-26 16:32:10.060479,0.014830566942691803,-0.07229441404342651,1.269527792930603,-1.555358648300171,1.2377398014068604,1.204458475112915,16:32:9,10572462
2022-04-26 16:32:10.060479,0.020689941942691803,-0.08401316404342651,1.271236777305603,-1.585892915725708,1.0850679874420166,1.082321047782898,16:32:9,10572471
2022-04-26 16:32:10.060479,0.013854004442691803,-0.07620066404342651,1.266598105430603,-1.585892915725708,0.9171290993690491,1.005985140800476,16:32:9,10572480
2022-04-26 16:32:10.060479,0.017027832567691803,-0.06960886716842651,1.269527792930603,-1.5400915145874023,0.9781978130340576,0.7311760187149048,16:32:9,10572490
2022-04-26 16:32:10.060479,0.015318848192691803,-0.07668894529342651,1.265133261680603,-1.5400915145874023,1.14613676071167,1.1281225681304932,16:32:9,10572499
2022-04-26 16:32:10.108335,0.019469238817691803,-0.07668894529342651,1.269527792930603,-1.6316945552825928,1.3140757083892822,1.112855315208435,16:32:9,10572509
2022-04-26 16:32:10.108335,0.016295410692691803,-0.07546824216842651,1.273922324180603,-1.6469616889953613,1.2988084554672241,1.0670537948608398,16:32:9,10572518
2022-04-26 16:32:10.108335,0.015562988817691803,-0.07131785154342651,1.267330527305603,-1.5095570087432861,1.3446099758148193,1.2197256088256836,16:32:9,10572527
2022-04-26 16:32:10.108335,0.018248535692691803,-0.07180613279342651,1.267086386680603,-1.585892915725708,0.9018619060516357,1.0365195274353027,16:32:9,10572537
2022-04-26 16:32:10.108335,0.019713379442691803,-0.07913035154342651,1.273434042930603,-1.585892915725708,0.9323962926864624,0.9296492338180542,16:32:9,10572546
2022-04-26 16:32:10.108335,0.017516113817691803,-0.07424753904342651,1.264156699180603,-1.5706257820129395,0.9781978130340576,0.9449164867401123,16:32:9,10572556
2022-04-26 16:32:10.179328,0.024596191942691803,-0.07766550779342651,1.267818808555603,-1.4942898750305176,1.0239993333816528,0.9601836204528809,16:32:9,10572565
2022-04-26 16:32:10.179328,0.024352051317691803,-0.07229441404342651,1.261227011680603,-1.7080304622650146,1.069800853729248,0.9601836204528809,16:32:9,10572574
2022-04-26 16:32:10.179328,0.018492676317691803,-0.07205027341842651,1.267574667930603,-1.692763090133667,1.4362130165100098,1.2502599954605103,16:32:9,10572584
2022-04-26 16:32:10.179328,0.019469238817691803,-0.07864207029342651,1.266842246055603,-1.7080304622650146,1.4514802694320679,1.2502599954605103,16:32:9,10572593
2022-04-26 16:32:10.179328,0.019469238817691803,-0.07082957029342651,1.277340292930603,-1.7385647296905518,1.4056787490844727,1.3265957832336426,16:32:9,10572603
2022-04-26 16:32:10.179328,0.017516113817691803,-0.07205027341842651,1.265621542930603,-1.555358648300171,1.375144362449646,1.189191222190857,16:32:9,10572612
2022-04-26 16:32:10.231575,0.014586426317691803,-0.07473582029342651,1.269771933555603,-1.4332211017608643,1.1003352403640747,0.8991149663925171,16:32:9,10572622
2022-04-26 16:32:10.231575,0.022154785692691803,-0.07742136716842651,1.268062949180603,-1.585892915725708,0.9934649467468262,0.7769775390625,16:32:9,10572631
2022-04-26 16:32:10.231575,0.017760254442691803,-0.07693308591842651,1.266353964805603,-1.6316945552825928,0.9781978130340576,0.9754507541656494,16:32:9,10572640
2022-04-26 16:32:10.231575,0.020445801317691803,-0.07253855466842651,1.268551230430603,-1.5400915145874023,1.14613676071167,0.8227790594100952,16:32:9,10572650
2022-04-26 16:32:10.231575,0.015562988817691803,-0.07717722654342651,1.267086386680603,-1.6011600494384766,1.268274188041687,1.204458475112915,16:32:9,10572659
2022-04-26 16:32:10.231575,0.017027832567691803,-0.07424753904342651,1.265621542930603,-1.585892915725708,1.268274188041687,1.1433897018432617,16:32:9,10572669
2022-04-26 16:32:10.273602,0.017271973192691803,-0.06667917966842651,1.265865683555603,-1.7538318634033203,1.2377398014068604,1.1739240884780884,16:32:9,10572678
2022-04-26 16:32:10.273602,0.025816895067691803,-0.07278269529342651,1.258541464805603,-1.7232975959777832,1.14613676071167,1.0670537948608398,16:32:9,10572687
2022-04-26 16:32:10.274609,0.018980957567691803,-0.07205027341842651,1.261227011680603,-1.3721524477005005,1.0392664670944214,0.7769775390625,16:32:9,10572697
2022-04-26 16:32:10.274726,0.018492676317691803,-0.07937449216842651,1.267574667930603,-1.4942898750305176,1.069800853729248,0.7922446727752686,16:32:9,10572706
2022-04-26 16:32:10.274726,0.018980957567691803,-0.07913035154342651,1.264156699180603,-1.479022741317749,1.1919382810592651,0.9143821001052856,16:32:9,10572716
2022-04-26 16:32:10.274726,0.016295410692691803,-0.07400339841842651,1.260982871055603,-1.585892915725708,1.2224726676940918,0.9296492338180542,16:32:9,10572725
2022-04-26 16:32:10.342802,0.020689941942691803,-0.07888621091842651,1.267818808555603,-1.6469616889953613,1.4362130165100098,1.0365195274353027,16:32:9,10572734
2022-04-26 16:32:10.342802,0.017516113817691803,-0.06887644529342651,1.265865683555603,-1.6011600494384766,1.375144362449646,1.1739240884780884,16:32:9,10572744
2022-04-26 16:32:10.342802,0.016539551317691803,-0.06960886716842651,1.264400839805603,-1.6469616889953613,1.1308695077896118,0.9143821001052856,16:32:9,10572753
2022-04-26 16:32:10.342802,0.021910645067691803,-0.06863230466842651,1.272701621055603,-1.356885313987732,1.176671028137207,0.9143821001052856,16:32:9,10572763
2022-04-26 16:32:10.342802,0.018004395067691803,-0.07180613279342651,1.270748496055603,-1.3721524477005005,1.1614038944244385,0.8533133268356323,16:32:9,10572772
2022-04-26 16:32:10.342802,0.018004395067691803,-0.07497996091842651,1.270992636680603,-1.479022741317749,0.9934649467468262,0.8533133268356323,16:32:9,10572781
2022-04-26 16:32:10.389986,0.014586426317691803,-0.08498972654342651,1.269527792930603,-1.5706257820129395,1.0392664670944214,1.0365195274353027,16:32:9,10572791
2022-04-26 16:32:10.389986,0.019225098192691803,-0.08010691404342651,1.271236777305603,-1.7232975959777832,1.0850679874420166,1.0212522745132446,16:32:9,10572800
2022-04-26 16:32:10.391023,0.018736816942691803,-0.07473582029342651,1.264644980430603,-1.799633502960205,1.2988084554672241,1.4334660768508911,16:32:9,10572810
2022-04-26 16:32:10.391089,0.020445801317691803,-0.07497996091842651,1.252682089805603,-1.7080304622650146,1.253006935119629,1.311328649520874,16:32:9,10572819
2022-04-26 16:32:10.391089,0.019713379442691803,-0.07546824216842651,1.260494589805603,-1.6774959564208984,1.0087320804595947,1.0517866611480713,16:32:9,10572828
2022-04-26 16:32:10.391089,0.015318848192691803,-0.07082957029342651,1.265133261680603,-1.5095570087432861,1.1003352403640747,0.8075118064880371,16:32:9,10572838
2022-04-26 16:32:10.461404,0.013609863817691803,-0.07717722654342651,1.271725058555603,-1.6469616889953613,1.069800853729248,1.082321047782898,16:32:9,10572847
2022-04-26 16:32:10.461404,0.017027832567691803,-0.07131785154342651,1.261959433555603,-1.4179539680480957,0.9629306197166443,0.7159087657928467,16:32:9,10572857
2022-04-26 16:32:10.461404,0.014586426317691803,-0.07717722654342651,1.264889121055603,-1.5706257820129395,1.253006935119629,0.8991149663925171,16:32:9,10572866
2022-04-26 16:32:10.461404,0.011412598192691803,-0.07888621091842651,1.265621542930603,-1.692763090133667,1.4056787490844727,1.387664556503296,16:32:9,10572875
2022-04-26 16:32:10.461404,0.020934082567691803,-0.07351511716842651,1.265377402305603,-1.7080304622650146,1.3293428421020508,1.204458475112915,16:32:9,10572885
2022-04-26 16:32:10.462406,0.025328613817691803,-0.07668894529342651,1.263180136680603,-1.8607020378112793,1.4667474031448364,1.2655271291732788,16:32:9,10572894
2022-04-26 16:32:10.509217,0.014586426317691803,-0.07058542966842651,1.272945761680603,-1.585892915725708,1.2988084554672241,1.0975881814956665,16:32:9,10572904
2022-04-26 16:32:10.509275,0.015807129442691803,-0.06960886716842651,1.264156699180603,-1.4942898750305176,1.1156023740768433,0.7769775390625,16:32:9,10572913
2022-04-26 16:32:10.509275,0.017516113817691803,-0.07913035154342651,1.270992636680603,-1.5706257820129395,0.9934649467468262,0.7922446727752686,16:32:9,10572922
2022-04-26 16:32:10.509275,0.012877441942691803,-0.07327097654342651,1.274654746055603,-1.3721524477005005,1.0087320804595947,0.6701072454452515,16:32:9,10572932
2022-04-26 16:32:10.509275,0.018736816942691803,-0.08303660154342651,1.268795371055603,-1.6164271831512451,1.1308695077896118,0.7769775390625,16:32:9,10572941
2022-04-26 16:32:10.509275,0.017760254442691803,-0.07571238279342651,1.265621542930603,-1.692763090133667,1.4209458827972412,1.0670537948608398,16:32:9,10572951
2022-04-26 16:32:10.554535,0.017760254442691803,-0.07375925779342651,1.266842246055603,-1.585892915725708,1.2072054147720337,1.082321047782898,16:32:9,10572960
2022-04-26 16:32:10.555540,0.021910645067691803,-0.07253855466842651,1.267330527305603,-1.5706257820129395,1.2072054147720337,1.0365195274353027,16:32:9,10572970
2022-04-26 16:32:10.555659,0.018980957567691803,-0.07375925779342651,1.261471152305603,-1.5248241424560547,1.1156023740768433,0.8991149663925171,16:32:9,10572979
2022-04-26 16:32:10.555659,0.019957520067691803,-0.08010691404342651,1.266109824180603,-1.4942898750305176,0.947663426399231,0.7464431524276733,16:32:9,10572988
2022-04-26 16:32:10.555659,0.018248535692691803,-0.06960886716842651,1.261715292930603,-1.5095570087432861,0.9323962926864624,0.9601836204528809,16:32:9,10572998
2022-04-26 16:32:10.555659,0.010680176317691803,-0.07546824216842651,1.268307089805603,-1.6164271831512451,1.14613676071167,0.8991149663925171,16:32:9,10573007
2022-04-26 16:32:10.628133,0.017516113817691803,-0.07302683591842651,1.269771933555603,-1.6774959564208984,1.176671028137207,1.0517866611480713,16:32:9,10573017
2022-04-26 16:32:10.628291,0.014586426317691803,-0.07522410154342651,1.270260214805603,-1.555358648300171,1.4209458827972412,1.0517866611480713,16:32:9,10573026
2022-04-26 16:32:10.628291,0.018980957567691803,-0.07253855466842651,1.262203574180603,-1.6774959564208984,1.3904114961624146,0.9601836204528809,16:32:9,10573035
2022-04-26 16:32:10.628291,0.017027832567691803,-0.07351511716842651,1.267818808555603,-1.448488473892212,1.3140757083892822,0.7922446727752686,16:32:9,10573045
2022-04-26 16:32:10.628291,0.018980957567691803,-0.07473582029342651,1.256832480430603,-1.3874197006225586,1.1003352403640747,0.7617102861404419,16:32:9,10573054
2022-04-26 16:32:10.628291,0.017271973192691803,-0.07620066404342651,1.267086386680603,-1.4026868343353271,0.8102588653564453,0.6090385913848877,16:32:9,10573064
2022-04-26 16:32:10.671829,0.017760254442691803,-0.07864207029342651,1.263912558555603,-1.356885313987732,1.2224726676940918,0.6548401117324829,16:32:9,10573073
2022-04-26 16:32:10.671829,0.016783691942691803,-0.08083933591842651,1.267574667930603,-1.6316945552825928,1.2072054147720337,0.9907180070877075,16:32:9,10573082
2022-04-26 16:32:10.671829,0.014098145067691803,-0.07473582029342651,1.271236777305603,-1.7843661308288574,1.0850679874420166,1.2655271291732788,16:32:9,10573092
2022-04-26 16:32:10.671829,0.021666504442691803,-0.07473582029342651,1.273189902305603,-1.8301677703857422,1.2377398014068604,1.387664556503296,16:32:9,10573101
2022-04-26 16:32:10.671829,0.015318848192691803,-0.07961863279342651,1.269039511680603,-1.6774959564208984,1.2988084554672241,1.1433897018432617,16:32:9,10573111
2022-04-26 16:32:10.671829,0.010924316942691803,-0.07278269529342651,1.265865683555603,-1.555358648300171,1.253006935119629,0.9601836204528809,16:32:9,10573120
2022-04-26 16:32:10.742429,0.017027832567691803,-0.07156199216842651,1.269771933555603,-1.4179539680480957,1.1003352403640747,0.7159087657928467,16:32:9,10573129
2022-04-26 16:32:10.742429,0.023375488817691803,-0.07473582029342651,1.269527792930603,-1.3110837936401367,1.0392664670944214,0.6090385913848877,16:32:9,10573139
2022-04-26 16:32:10.742429,0.020445801317691803,-0.07156199216842651,1.271969199180603,-1.4637556076049805,1.1003352403640747,0.7464431524276733,16:32:9,10573148
2022-04-26 16:32:10.742429,0.015562988817691803,-0.07693308591842651,1.258785605430603,-1.4179539680480957,1.0087320804595947,0.8227790594100952,16:32:9,10573158
2022-04-26 16:32:10.743467,0.016051270067691803,-0.07253855466842651,1.267574667930603,-1.6774959564208984,1.3446099758148193,1.1739240884780884,16:32:9,10573167
2022-04-26 16:32:10.743564,0.018736816942691803,-0.07620066404342651,1.272213339805603,-1.5706257820129395,1.2835413217544556,1.3418630361557007,16:32:9,10573176
2022-04-26 16:32:10.743564,0.016051270067691803,-0.07937449216842651,1.271236777305603,-1.7232975959777832,1.2835413217544556,1.2197256088256836,16:32:9,10573186
2022-04-26 16:32:10.789950,0.018736816942691803,-0.07473582029342651,1.267086386680603,-1.6469616889953613,1.2072054147720337,1.005985140800476,16:32:9,10573195
2022-04-26 16:32:10.790987,0.016783691942691803,-0.07766550779342651,1.266109824180603,-1.5400915145874023,1.0545337200164795,0.883847713470459,16:32:9,10573205
2022-04-26 16:32:10.791055,0.019225098192691803,-0.07253855466842651,1.260494589805603,-1.585892915725708,0.9171290993690491,0.7769775390625,16:32:9,10573214
2022-04-26 16:32:10.791055,0.015562988817691803,-0.07668894529342651,1.267574667930603,-1.3416181802749634,1.1308695077896118,0.7464431524276733,16:32:9,10573223
2022-04-26 16:32:10.791055,0.012633301317691803,-0.08010691404342651,1.262935996055603,-1.448488473892212,1.2377398014068604,0.6548401117324829,16:32:9,10573233
2022-04-26 16:32:10.791055,0.015807129442691803,-0.07082957029342651,1.263668417930603,-1.585892915725708,1.176671028137207,1.0670537948608398,16:32:9,10573242
2022-04-26 16:32:10.859836,0.017516113817691803,-0.07497996091842651,1.254146933555603,-1.6011600494384766,1.3598772287368774,1.0212522745132446,16:32:9,10573252
2022-04-26 16:32:10.859836,0.013854004442691803,-0.07180613279342651,1.271236777305603,-1.4637556076049805,1.2377398014068604,1.1281225681304932,16:32:9,10573261
2022-04-26 16:32:10.860979,0.013854004442691803,-0.07131785154342651,1.271725058555603,-1.4179539680480957,1.1614038944244385,0.9143821001052856,16:32:9,10573271
2022-04-26 16:32:10.861019,0.013609863817691803,-0.07009714841842651,1.263668417930603,-1.4026868343353271,1.1308695077896118,0.7311760187149048,16:32:9,10573280
2022-04-26 16:32:10.861019,0.010436035692691803,-0.07082957029342651,1.265377402305603,-1.4026868343353271,1.0392664670944214,0.7922446727752686,16:32:9,10573289
2022-04-26 16:32:10.861019,0.018736816942691803,-0.07131785154342651,1.263180136680603,-1.2652822732925415,1.14613676071167,0.8075118064880371,16:32:9,10573299
2022-04-26 16:32:10.906598,0.009215332567691803,-0.07449167966842651,1.271480917930603,-1.5706257820129395,1.2377398014068604,1.0365195274353027,16:32:9,10573308
2022-04-26 16:32:10.906598,0.015318848192691803,-0.07620066404342651,1.262691855430603,-1.692763090133667,1.2072054147720337,1.1281225681304932,16:32:10,10573318
2022-04-26 16:32:10.906598,0.018004395067691803,-0.07375925779342651,1.258785605430603,-1.692763090133667,1.3293428421020508,1.0517866611480713,16:32:10,10573327
2022-04-26 16:32:10.906598,0.018248535692691803,-0.07473582029342651,1.265377402305603,-1.5248241424560547,1.3293428421020508,0.9601836204528809,16:32:10,10573336
2022-04-26 16:32:10.906598,-6.201118230819702e-05,-0.043485820293426514,1.177975058555603,-5.494290351867676,14.214838981628418,15.250259399414062,16:32:10,10573346
2022-04-26 16:32:10.906598,0.1774282157421112,-0.011991679668426514,1.021480917930603,29.238534927368164,-0.3347792625427246,-59.14668655395508,16:32:10,10573355
2022-04-26 16:32:10.995608,0.0763540044426918,-0.07180613279342651,1.335934042930603,12.139297485351562,-20.533252716064453,0.4410996437072754,16:32:10,10573365
2022-04-26 16:32:10.995608,-0.0696420893073082,-0.1401655077934265,1.489986777305603,-18.104976654052734,-18.96073341369629,11.204458236694336,16:32:10,10573374
2022-04-26 16:32:10.995608,-0.0508432611823082,-0.1250287890434265,1.251949667930603,-29.830167770385742,0.947663426399231,23.280794143676758,16:32:10,10573383
2022-04-26 16:32:10.995608,0.003600098192691803,0.0016801953315734863,1.203365683555603,-4.257648468017578,-1.128672480583191,7.662473678588867,16:32:10,10573393
2022-04-26 16:32:10.995608,-0.0552377924323082,-0.10964792966842651,1.244869589805603,10.475175857543945,4.443846702575684,-10.963479995727539,16:32:10,10573402
2022-04-26 16:32:10.995608,0.0324086919426918,-0.06619089841842651,1.268307089805603,7.620213508605957,8.764456748962402,-18.45966339111328,16:32:10,10573412
2022-04-26 16:32:11.025700,0.0665883794426918,-0.06912058591842651,1.286617636680603,6.15456485748291,1.8178924322128296,-4.64286994934082,16:32:10,10573421
2022-04-26 16:32:11.025700,0.030943848192691803,-0.08865183591842651,1.298336386680603,-6.654595375061035,-0.2584434747695923,5.937282562255859,16:32:10,10573430
2022-04-26 16:32:11.025700,0.024107910692691803,-0.06741160154342651,1.258053183555603,-9.326351165771484,-2.0447030067443848,10.97545051574707,16:32:10,10573440
2022-04-26 16:32:11.025700,-0.004212401807308197,-0.07375925779342651,1.252926230430603,-5.280549049377441,-0.8996647596359253,7.387664318084717,16:32:10,10573449
2022-04-26 16:32:11.025700,-0.004212401807308197,-0.08206003904342651,1.252926230430603,-1.1126104593276978,2.398045063018799,-1.116152286529541,16:32:10,10573459
2022-04-26 16:32:11.025700,0.013854004442691803,-0.07034128904342651,1.253414511680603,3.0400612354278564,3.1919384002685547,-4.9176788330078125,16:32:10,10573468
2022-04-26 16:32:11.073075,0.022643066942691803,-0.07546824216842651,1.277828574180603,1.7270841598510742,2.7033886909484863,-3.3451600074768066,16:32:10,10573477
2022-04-26 16:32:11.073075,0.0326528325676918,-0.07620066404342651,1.276852011680603,-2.04390811920166,1.1156023740768433,1.2655271291732788,16:32:10,10573487
2022-04-26 16:32:11.073075,0.023131348192691803,-0.07449167966842651,1.270504355430603,-3.8607022762298584,-0.09050452709197998,4.456366539001465,16:32:10,10573496
2022-04-26 16:32:11.073075,0.009703613817691803,-0.07205027341842651,1.269771933555603,-3.8454349040985107,-0.02943575382232666,3.8609471321105957,16:32:10,10573506
2022-04-26 16:32:11.073075,0.003111816942691803,-0.07229441404342651,1.261471152305603,-1.8301677703857422,0.8713275790214539,1.3265957832336426,16:32:10,10573515
2022-04-26 16:32:11.073075,0.009459473192691803,-0.07742136716842651,1.264400839805603,-0.1507784128189087,1.9094955921173096,-1.0245492458343506,16:32:10,10573524
2022-04-26 16:32:11.141961,0.011656738817691803,-0.08352488279342651,1.269283652305603,-0.028641045093536377,1.985831379890442,-1.4214956760406494,16:32:10,10573534
2022-04-26 16:32:11.143059,0.022887207567691803,-0.07864207029342651,1.267574667930603,-0.9904731512069702,1.482014536857605,0.24262642860412598,16:32:10,10573543
2022-04-26 16:32:11.143059,0.025816895067691803,-0.07620066404342651,1.273678183555603,-2.0744426250457764,1.0392664670944214,1.9678171873092651,16:32:10,10573553
2022-04-26 16:32:11.143059,0.014342285692691803,-0.07473582029342651,1.265865683555603,-2.5324578285217285,0.8560603857040405,2.059420347213745,16:32:10,10573562
2022-04-26 16:32:11.143059,0.018248535692691803,-0.06741160154342651,1.267818808555603,-1.9370379447937012,0.8255260586738586,1.3418630361557007,16:32:10,10573572
2022-04-26 16:32:11.143059,0.012877441942691803,-0.07473582029342651,1.268551230430603,-1.0668089389801025,1.0545337200164795,0.31896233558654785,16:32:10,10573581
2022-04-26 16:32:11.190318,0.014342285692691803,-0.07058542966842651,1.256832480430603,-0.8683357238769531,1.4056787490844727,-0.20012164115905762,16:32:10,10573590
2022-04-26 16:32:11.190318,0.1124868169426918,-0.12161082029342651,1.218014121055603,-8.746198654174805,12.657587051391602,8.670106887817383,16:32:10,10573600
2022-04-26 16:32:11.190318,0.1776723563671112,0.12204152345657349,1.111812949180603,8.688916206359863,-44.51798629760742,-4.994014739990234,16:32:10,10573609
2022-04-26 16:32:11.190318,-0.024231933057308197,-0.1826459765434265,1.214107871055603,-10.669862747192383,-22.731725692749023,7.250259876251221,16:32:10,10573619
2022-04-26 16:32:11.190318,0.0390004888176918,0.011445820331573486,1.111080527305603,-20.761465072631836,-3.037069320678711,19.57086944580078,16:32:10,10573628
2022-04-26 16:32:11.190318,-0.0364389643073082,-0.09939402341842651,1.270748496055603,14.215633392333984,-47.55615234375,-6.291724681854248,16:32:10,10573637
2022-04-26 16:32:11.259556,-0.5759897232055664,-0.2053510546684265,1.538814902305603,23.177465438842773,-3.495084762573242,-1.0703506469726562,16:32:10,10573647
2022-04-26 16:32:11.260596,-0.1279917061328888,0.057588398456573486,1.295650839805603,-1.051541805267334,63.390411376953125,-33.54363250732422,16:32:10,10573656
2022-04-26 16:32:11.260596,0.013365723192691803,-0.08450144529342651,1.258541464805603,28.414106369018555,-6.273710250854492,-24.230655670166016,16:32:10,10573666
2022-04-26 16:32:11.260596,-0.1629038155078888,-0.1284467577934265,1.291256308555603,20.169832229614258,19.955297470092773,-22.612335205078125,16:32:10,10573675
2022-04-26 16:32:11.260596,-0.0466928705573082,-0.10671824216842651,1.210934042930603,9.818687438964844,44.06216812133789,-16.62760353088379,16:32:10,10573684
2022-04-26 16:32:11.260596,0.0365590825676918,-0.07351511716842651,1.213375449180603,1.3606719970703125,40.64231872558594,-5.360426902770996,16:32:10,10573694
2022-04-26 16:32:11.307815,0.011900879442691803,-0.1614057421684265,1.294430136680603,-6.166045188903809,39.68048858642578,9.708274841308594,16:32:10,10573703
2022-04-26 16:32:11.307815,0.021178223192691803,-0.06472605466842651,1.283199667930603,5.46754264831543,48.84079360961914,0.8380461931228638,16:32:10,10573713
2022-04-26 16:32:11.307815,0.0646352544426918,-0.10110300779342651,1.321285605430603,8.99425983428955,49.817893981933594,-12.58180046081543,16:32:10,10573722
2022-04-26 16:32:11.307815,0.1017446294426918,-0.1660444140434265,1.301021933555603,4.24616813659668,46.8713264465332,-0.7039384841918945,16:32:10,10573731
2022-04-26 16:32:11.307815,0.0726918950676918,-0.027860820293426514,1.306148886680603,7.513343811035156,40.0010986328125,-5.284090995788574,16:32:10,10573741
2022-04-26 16:32:11.307815,0.0839223638176918,-0.07888621091842651,1.331295371055603,9.31486988067627,31.28354263305664,-13.177221298217773,16:32:10,10573750
2022-04-26 16:32:11.362256,0.0897817388176918,-0.08572214841842651,1.291256308555603,11.009526252746582,31.008731842041016,-9.955846786499023,16:32:10,10573760
2022-04-26 16:32:11.363324,0.0829458013176918,-0.08645457029342651,1.386959433555603,9.131664276123047,19.20720672607422,-15.28409194946289,16:32:10,10573769
2022-04-26 16:32:11.363324,0.1193227544426918,-0.09231394529342651,1.374508261680603,8.06296157836914,12.962930679321289,-12.276456832885742,16:32:10,10573778
2022-04-26 16:32:11.363324,0.0741567388176918,-0.11990183591842651,1.350826621055603,4.24616813659668,10.48964786529541,-0.21538901329040527,16:32:10,10573788
2022-04-26 16:32:11.363324,0.0636586919426918,-0.06814402341842651,1.315426230430603,4.643115043640137,9.588884353637695,-2.9634804725646973,16:32:10,10573797
2022-04-26 16:32:11.363324,0.0941762700676918,-0.1491987109184265,1.321041464805603,-1.158411979675293,1.4514802694320679,-5.574167728424072,16:32:10,10573807
